File: CuClQDs/XRD&XRF/20190611/A56_2thetaomega_2θ_ω.asc
*TYPE		=  Raw
*CLASS		=  ASCII CLASS
*SAMPLE		=  A56
*COMMENT	=
*FNAME		=  A56_2thetaomega_2θ_ω.asc
*DATE		=  11-Jun-19 12:31

*GROUP_COUNT	=  1
*GONIO		=  SmartLab(In-plane), 0.000000
*ATTACHMENT	=  χφZクレードル
*ASC		=  0, 0, 0.000000, 0.000000
*I_MONOCHRO	=  Ge(220)x2, 0.000000
*FILTER		=  None
*C_MONOCHRO	=  No_unit, 0.000000
*SLIT_NAME	=  0, 入射スリット
*SLIT_NAME	=  1, 受光スリット1
*SLIT_NAME	=  2, 受光スリット2
*COUNTER	=  HyPix 3000(H), 0
*POS_FORMAT	=  0
*SCAN_AXIS	=  2Theta/Omega
*MEAS_MODE	=  Continuous Scanning
*TARGET		=  29
*XRAY_CHAR	=  K-ALPHA1
*WAVE_LENGTH1	=  1.54059
*WAVE_LENGTH2	=  1.54441
*THICKNESS	=  0, 0.000000
*MU		=  0, 0.000000
*SCAN_MODE	=  2Theta/Omega
*SPEED_DIM	=  sec./step
*XUNIT		=  deg.
*YUNIT		=  counts
*SCALE_MODE	=  1
*REP_COUNT	=  0
*SE_COUNT	=  0
*STD_MATERIAL	=  Unknown, Unknown, 0.000000, 0.000000, 0.000000, 0.000000, 0.000000, 0.000000
*LATT_CONS	=  0, Unknown, Unknown, 0.000000, 0.000000, 0.000000, 0.000000, 0.000000, 0.000000
*SEC_COUNT	=  1
*TSPEC_SIZE	=  0
*EXTRA_SIZE	=  0
*MEMO		=

*BEGIN
*GROUP		=  0
*START		=  20
*STOP		=  90
*STEP		=  0.01
*OFFSET		=  0.000000
*SPEED		=  0.116312
*SLIT_SPEC	=  0, 0.500mm, 0.5, 0.000000
*SLIT_SPEC	=  1, 0.500mm, 0.5, 0.000000
*SLIT_SPEC	=  2, 0.500mm, 0.5, 0.000000
*KV		=  45
*MA		=  200
*LOW		=  0.000000
*HIGH		=  0.000000
*CTEMPER	=  0, 0.000000
*CTEMPER	=  1, 0.000000
*CTEMPER	=  2, 0.000000
*PAREX		=  0, 0.000000
*PAREX		=  1, 0.000000
*PAREX		=  2, 0.000000
*PAREX		=  3, 0.000000
*PAREX		=  4, 0.000000
*PAREX		=  5, 0.000000
*PAREX		=  6, 0.000000
*PAREX		=  7, 0.000000
*PAREX		=  8, 0.000000
*PAREX		=  9, 0.000000
*PAREX		=  10, 0.000000
*PAREX		=  11, 0.000000
*PAREX		=  12, 0.000000
*PAREX		=  13, 0.000000
*PAREX		=  14, 0.000000
*PAREX		=  15, 0.000000
*FULL_SCALE	=  180434
*INDEX		=  0, 0, 0
*COUNT		=  7001
0.000000, 0.99407, 0.987896, 0.000000
0.000000, 1.01164, 1.02077, 0.000000
0.000000, 0.000000, 0.000000, 0.000000
0.000000, 0.000000, 0.000000, 0.000000
0.000000, 0.000000, 0.000000, 0.000000
1.02453, 0.000000, 0.000000, 0.000000
1.29912, 0.000000, 0.000000, 0.000000
1.00323, 0.982377, 0.000000, 0.000000
0.000000, 0.000000, 2.0389, 0.000000
1.00837, 0.000000, 0.000000, 0.985436
0.000000, 0.000000, 0.000000, 0.000000
0.000000, 0.000000, 0.000000, 0.991445
0.000000, 0.000000, 0.000000, 0.000000
0.000000, 0.000000, 0.000000, 0.000000
0.978235, 0.000000, 0.000000, 0.000000
0.000000, 0.000000, 0.000000, 0.000000
0.000000, 0.000000, 2.98269, 0.99162
0.000000, 0.000000, 1.00487, 0.99262
0.000000, 0.000000, 0.000000, 0.000000
0.000000, 0.000000, 0.000000, 0.000000
0.000000, 0.000000, 0.000000, 0.000000
0.000000, 0.000000, 0.000000, 0.000000
0.000000, 1.01763, 0.000000, 1.0063
0.000000, 0.000000, 0.000000, 1.00438
0.973702, 0.98988, 0.000000, 0.984412
0.000000, 0.000000, 0.000000, 0.000000
0.994484, 0.000000, 1.00443, 0.000000
0.000000, 0.000000, 0.000000, 0.000000
0.000000, 0.000000, 0.000000, 0.000000
1.00208, 0.999659, 0.000000, 0.000000
0.000000, 0.000000, 0.000000, 0.000000
0.000000, 0.978339, 0.000000, 1.0114
0.978306, 0.000000, 0.000000, 0.000000
0.000000, 0.000000, 0.000000, 0.000000
0.000000, 0.000000, 0.000000, 0.000000
0.000000, 0.000000, 0.000000, 0.000000
0.000000, 0.000000, 0.000000, 0.000000
0.000000, 0.000000, 0.000000, 0.994782
0.000000, 0.000000, 0.000000, 0.000000
0.000000, 0.000000, 0.000000, 0.000000
0.000000, 0.000000, 0.000000, 0.000000
0.000000, 0.000000, 0.985519, 0.991969
0.000000, 0.000000, 0.998049, 1.9866
0.000000, 0.991918, 0.000000, 0.000000
0.000000, 0.000000, 0.000000, 0.000000
0.000000, 0.000000, 0.000000, 0.000000
0.000000, 0.000000, 0.000000, 0.000000
0.000000, 0.000000, 0.98691, 0.000000
0.000000, 0.000000, 0.000000, 0.000000
0.000000, 0.000000, 0.000000, 0.000000
0.000000, 0.000000, 0.000000, 0.000000
0.000000, 0.000000, 0.000000, 0.000000
0.000000, 0.000000, 0.000000, 0.000000
0.981818, 0.000000, 0.000000, 0.000000
0.000000, 0.000000, 0.000000, 0.000000
0.000000, 1.98774, 0.000000, 0.000000
0.000000, 0.000000, 0.000000, 0.000000
0.000000, 0.000000, 0.000000, 0.000000
0.000000, 0.000000, 0.000000, 0.000000
0.000000, 0.000000, 0.000000, 0.000000
0.000000, 0.000000, 0.000000, 0.000000
0.000000, 1.00488, 0.000000, 0.000000
0.97911, 0.000000, 0.000000, 0.000000
0.000000, 0.000000, 0.000000, 2.00185
0.000000, 0.000000, 0.000000, 0.000000
0.969502, 0.000000, 0.000000, 0.000000
0.000000, 0.000000, 0.000000, 0.000000
0.000000, 0.000000, 0.000000, 0.988589
0.991445, 0.987345, 0.000000, 0.000000
0.000000, 0.000000, 0.000000, 0.000000
0.000000, 0.000000, 0.000000, 0.000000
0.000000, 0.988569, 0.000000, 0.000000
0.969502, 0.000000, 0.000000, 0.000000
0.997476, 0.976382, 0.995516, 0.000000
0.000000, 0.000000, 0.000000, 0.996212
0.000000, 0.000000, 0.995916, 0.000000
0.000000, 0.000000, 0.000000, 0.000000
0.000000, 0.000000, 0.000000, 0.000000
0.000000, 0.000000, 0.000000, 0.000000
0.000000, 0.000000, 0.000000, 0.000000
0.985255, 0.000000, 0.996913, 0.000000
0.997601, 0.000000, 0.000000, 0.000000
0.000000, 0.000000, 1.0166, 0.000000
1.02218, 0.000000, 0.000000, 0.000000
0.994689, 0.993514, 0.000000, 0.000000
0.000000, 0.000000, 1.03058, 0.000000
0.000000, 1.03149, 0.000000, 1.01996
0.000000, 0.000000, 0.996544, 0.990516
0.000000, 0.000000, 0.000000, 0.000000
0.000000, 0.000000, 0.000000, 0.000000
0.000000, 0.000000, 0.000000, 0.000000
0.000000, 0.989299, 0.000000, 0.998874
0.980527, 0.96292, 1.01056, 0.000000
0.000000, 0.998526, 0.000000, 0.000000
0.000000, 1.99595, 0.996711, 0.000000
0.000000, 0.000000, 0.000000, 0.000000
2.99313, 0.991859, 0.000000, 0.000000
0.000000, 0.000000, 0.000000, 1.0079
0.000000, 0.000000, 0.000000, 0.000000
0.990903, 0.000000, 0.000000, 0.000000
0.000000, 0.000000, 0.000000, 0.992222
0.000000, 0.000000, 0.000000, 0.993788
0.000000, 0.000000, 0.000000, 0.000000
0.000000, 0.000000, 0.000000, 0.000000
0.000000, 0.000000, 0.000000, 0.000000
0.000000, 1.01787, 0.000000, 0.981818
0.000000, 0.000000, 0.000000, 0.000000
0.000000, 0.000000, 0.000000, 0.997652
0.000000, 0.000000, 0.000000, 0.000000
0.000000, 2.01238, 1.02276, 0.980006
0.996983, 0.000000, 0.998276, 0.000000
0.000000, 0.000000, 0.986882, 0.000000
0.000000, 0.000000, 0.988085, 1.00707
0.000000, 0.000000, 0.976205, 3.97516
0.000000, 0.000000, 0.000000, 1.00753
0.000000, 0.998102, 0.000000, 1.02963
0.000000, 0.952999, 0.000000, 2.04504
0.000000, 0.000000, 0.980693, 0.000000
0.99262, 0.987171, 1.97908, 0.000000
1.01765, 0.000000, 0.983593, 0.000000
2.01474, 0.998102, 0.000000, 0.000000
0.994324, 0.000000, 3.97682, 1.95729
0.988973, 1.98881, 0.000000, 3.02142
0.994179, 1.98501, 1.98971, 0.000000
0.000000, 2.004, 0.984872, 0.000000
0.000000, 1.00377, 1.00265, 0.997088
1.00599, 4.0251, 0.979151, 3.96719
3.0149, 0.000000, 0.000000, 1.97695
0.000000, 2.01681, 1.99053, 0.991158
0.986875, 2.98642, 3.00099, 0.000000
3.98888, 1.00278, 1.00207, 2.99459
1.99524, 3.95786, 3.97653, 1.97707
2.93117, 0.000000, 1.99459, 2.97782
2.97034, 5.94876, 2.02401, 4.98911
3.94307, 1.96453, 3.99531, 5.01043
5.02357, 3.02762, 2.99424, 3.96792
4.04594, 3.0021, 6.06024, 1.00896
2.9836, 11.9595, 6.0588, 5.97281
4.95098, 7.99688, 8.92864, 1.98042
9.95666, 4.92262, 5.98962, 8.99173
5.99102, 10.9481, 11.9082, 11.0419
13.9829, 13.0056, 17.0489, 11.9444
13.9232, 19.8837, 20.8857, 16.9127
23.8963, 27.8583, 32.7354, 47.7493
100.821, 92.6917, 169.733, 207.304
2088.49, 4918.53, 5159.46, 5719.8
13331.2, 9087.13, 7514.32, 5677.99
418.514, 204.424, 111.659, 44.0109
17.9154, 22.903, 20.1994, 21.987
13.9258, 6.98706, 10.9726, 10.9067
7.93035, 6.9241, 5.98681, 7.92842
9.13548, 6.03429, 4.96896, 4.99365
5.99833, 6.01393, 5.95683, 5.96722
2.98144, 7.89315, 2.03163, 1.99406
4.00525, 1.9885, 5.96825, 5.96335
2.11974, 3.97808, 4.9564, 4.93613
0.000000, 2.97, 5.96304, 3.00347
1.00712, 2.00924, 6.014, 2.00485
2.99006, 2.97817, 2.03752, 3.94862
4.28537, 0.986465, 1.98374, 4.98774
0.982542, 0.990361, 1.99106, 1.99312
1.98722, 2.96891, 2.96552, 2.0378
2.00935, 3.98911, 0.995516, 0.996102
1.99872, 3.98228, 1.95833, 1.99858
0.000000, 1.00497, 2.97296, 1.97423
2.00891, 3.94515, 1.97092, 1.98498
1.99907, 1.01853, 2.95681, 0.977629
1.00189, 2.02214, 0.991158, 2.99625
2.00404, 2.01892, 0.985206, 0.000000
0.999559, 0.984784, 2.0074, 0.000000
3.98491, 1.98022, 1.93947, 1.99692
1.97696, 0.982551, 0.989854, 2.97699
0.000000, 1.02218, 1.00552, 2.04345
0.000000, 0.998446, 0.000000, 0.000000
0.979422, 2.95433, 2.01284, 0.000000
0.995516, 1.97338, 0.000000, 0.000000
0.000000, 0.958477, 0.000000, 0.000000
0.000000, 0.000000, 0.998868, 1.02077
0.992874, 0.000000, 0.993375, 0.000000
0.990101, 0.000000, 0.000000, 0.000000
0.000000, 0.000000, 0.000000, 0.988078
1.02988, 0.000000, 2.98533, 0.000000
1.00189, 1.0054, 0.988163, 0.000000
1.94238, 1.96674, 0.988589, 0.000000
0.000000, 0.000000, 0.000000, 0.000000
0.000000, 0.000000, 0.000000, 2.0093
0.996545, 0.000000, 1.02828, 1.95733
0.974124, 0.000000, 0.000000, 0.000000
0.000000, 0.000000, 0.000000, 0.98114
0.000000, 0.000000, 0.97107, 0.000000
0.982887, 0.000000, 0.000000, 0.000000
0.980527, 0.000000, 0.971059, 0.000000
0.000000, 0.99925, 0.000000, 1.98761
0.000000, 0.990651, 1.01996, 0.969502
0.976949, 1.00917, 0.000000, 0.991709
0.000000, 0.000000, 1.0018, 0.992417
0.000000, 0.990596, 0.000000, 0.000000
0.000000, 0.000000, 0.000000, 0.987688
1.95601, 0.000000, 0.000000, 0.000000
0.000000, 1.00401, 0.983593, 0.000000
0.000000, 0.000000, 0.000000, 0.99741
0.000000, 0.000000, 0.000000, 0.000000
0.000000, 0.000000, 0.000000, 0.000000
0.000000, 0.996604, 0.000000, 0.000000
0.000000, 0.000000, 0.000000, 0.000000
0.985361, 1.98976, 0.000000, 0.000000
0.000000, 0.000000, 0.989461, 0.000000
0.000000, 0.000000, 0.000000, 0.000000
0.989021, 1.00856, 0.000000, 0.000000
1.01989, 0.000000, 1.00449, 0.000000
0.000000, 0.000000, 1.00246, 0.000000
0.000000, 0.000000, 0.998546, 0.000000
0.000000, 0.000000, 0.000000, 0.000000
0.000000, 0.990536, 0.995864, 0.999458
0.000000, 0.000000, 0.000000, 0.000000
0.000000, 0.000000, 0.995588, 0.000000
0.990225, 0.000000, 0.000000, 0.000000
0.000000, 1.98956, 0.000000, 1.00162
1.00837, 0.994689, 0.000000, 0.000000
1.01091, 0.000000, 0.000000, 0.000000
0.000000, 0.000000, 0.992427, 0.000000
0.999405, 0.99262, 0.000000, 0.000000
1.02107, 0.988794, 0.000000, 0.98897
0.000000, 0.000000, 0.000000, 1.00505
0.996061, 1.99384, 2.0192, 0.979405
0.99499, 0.000000, 3.99586, 1.97925
1.97909, 1.96105, 0.994251, 0.988163
1.98186, 0.000000, 1.99219, 0.991943
0.000000, 0.993375, 1.00988, 0.000000
0.000000, 0.000000, 1.01936, 0.992996
0.000000, 0.000000, 0.000000, 0.000000
0.998546, 0.000000, 0.000000, 0.000000
1.00265, 0.000000, 1.00814, 0.000000
0.000000, 0.000000, 0.000000, 0.000000
0.000000, 0.000000, 0.000000, 0.000000
0.000000, 0.000000, 0.000000, 1.00092
0.995828, 0.000000, 0.000000, 0.000000
0.000000, 0.980265, 0.000000, 0.000000
0.990225, 0.994333, 0.000000, 0.972547
0.000000, 0.000000, 0.000000, 0.000000
0.000000, 0.000000, 0.000000, 0.000000
0.986882, 0.000000, 0.000000, 1.15151
0.000000, 0.000000, 0.999598, 0.000000
0.000000, 0.000000, 0.991096, 1.99932
0.000000, 0.000000, 0.000000, 0.000000
0.000000, 0.000000, 0.000000, 0.000000
0.000000, 0.000000, 0.000000, 0.000000
0.000000, 0.000000, 0.000000, 0.000000
0.000000, 0.000000, 0.000000, 0.000000
0.000000, 0.984659, 0.000000, 0.000000
0.000000, 0.000000, 0.977429, 0.000000
0.000000, 0.983566, 0.000000, 0.000000
0.000000, 2.97218, 0.000000, 0.000000
0.000000, 1.01345, 0.000000, 0.000000
0.999085, 0.000000, 0.000000, 0.000000
0.000000, 0.000000, 0.000000, 0.000000
0.988009, 0.000000, 0.000000, 0.000000
0.000000, 0.000000, 0.000000, 0.000000
0.000000, 0.000000, 0.000000, 0.000000
0.000000, 1.00567, 0.000000, 0.000000
1.01086, 0.000000, 0.000000, 1.01853
1.00712, 0.978235, 0.000000, 0.000000
0.000000, 0.000000, 0.000000, 0.000000
0.000000, 0.000000, 0.995516, 1.00575
0.000000, 0.000000, 0.000000, 0.000000
0.000000, 0.999405, 0.000000, 0.000000
0.000000, 0.000000, 0.000000, 1.01936
1.0114, 0.000000, 0.000000, 0.000000
0.000000, 0.000000, 0.000000, 0.000000
0.990922, 0.000000, 0.000000, 0.000000
0.000000, 0.000000, 0.000000, 0.000000
0.000000, 0.000000, 0.000000, 0.000000
0.000000, 0.000000, 0.000000, 0.000000
0.000000, 0.000000, 0.000000, 0.000000
0.000000, 1.01349, 0.000000, 0.000000
0.000000, 0.000000, 0.000000, 0.000000
0.000000, 0.000000, 0.000000, 0.000000
0.000000, 0.982552, 0.987508, 0.000000
0.000000, 0.000000, 0.000000, 0.000000
0.000000, 0.000000, 0.000000, 0.977426
0.000000, 0.000000, 0.000000, 0.000000
0.000000, 0.000000, 0.000000, 0.000000
0.000000, 0.000000, 0.000000, 0.000000
0.000000, 0.000000, 0.000000, 0.000000
0.000000, 0.000000, 1.01557, 0.989308
0.000000, 0.000000, 0.000000, 0.000000
0.000000, 0.000000, 0.000000, 1.97688
0.000000, 0.000000, 0.999802, 0.000000
0.000000, 0.000000, 0.000000, 0.000000
0.000000, 0.000000, 0.000000, 0.000000
0.000000, 0.000000, 0.000000, 0.000000
0.000000, 0.987067, 0.000000, 0.000000
0.000000, 0.000000, 0.000000, 0.000000
0.000000, 0.000000, 1.00076, 0.998116
0.000000, 0.988733, 0.000000, 0.994782
0.000000, 0.000000, 0.960999, 0.000000
0.000000, 0.000000, 0.000000, 0.998328
0.000000, 0.000000, 0.000000, 0.000000
0.000000, 0.000000, 0.000000, 0.000000
0.98988, 0.000000, 0.000000, 0.000000
0.000000, 0.000000, 1.98193, 0.984948
0.000000, 0.000000, 2.00805, 0.997827
0.000000, 0.000000, 0.978157, 1.00258
0.000000, 0.000000, 0.000000, 1.00952
0.000000, 1.01389, 0.000000, 1.0092
2.02026, 0.000000, 0.000000, 0.968993
0.000000, 0.000000, 1.02859, 0.987688
0.000000, 1.01585, 0.000000, 0.000000
0.000000, 0.000000, 0.000000, 1.00799
0.000000, 0.000000, 0.000000, 1.0114
0.000000, 0.000000, 0.000000, 0.000000
0.000000, 0.995434, 0.000000, 0.000000
0.000000, 0.000000, 0.000000, 0.000000
0.000000, 0.000000, 0.000000, 0.000000
0.000000, 0.000000, 0.000000, 0.000000
0.000000, 0.000000, 0.000000, 0.000000
1.01387, 0.000000, 0.000000, 0.000000
0.000000, 0.000000, 0.000000, 1.00658
0.000000, 0.000000, 2.25646, 0.000000
0.000000, 0.000000, 0.000000, 0.000000
1.99561, 0.000000, 0.000000, 0.99925
0.000000, 0.000000, 0.000000, 0.000000
0.000000, 1.00165, 0.000000, 0.000000
0.000000, 0.000000, 0.977629, 0.000000
0.000000, 0.000000, 0.000000, 0.000000
0.000000, 0.000000, 0.000000, 0.000000
0.000000, 0.000000, 0.000000, 0.000000
0.000000, 0.000000, 0.000000, 0.986088
0.000000, 0.000000, 0.000000, 0.000000
0.000000, 0.000000, 0.000000, 0.000000
0.000000, 0.000000, 0.000000, 0.000000
0.000000, 0.000000, 1.01989, 0.000000
0.000000, 0.000000, 0.000000, 1.00287
0.000000, 0.000000, 0.000000, 1.97436
0.000000, 0.000000, 0.000000, 0.000000
0.000000, 0.000000, 0.000000, 0.000000
0.000000, 0.000000, 0.000000, 0.000000
0.000000, 0.000000, 0.000000, 0.000000
0.000000, 0.000000, 0.000000, 0.000000
0.000000, 0.000000, 0.000000, 0.000000
0.000000, 0.000000, 1.00145, 0.000000
0.000000, 0.000000, 0.000000, 0.000000
0.000000, 1.0018, 0.000000, 0.000000
0.000000, 0.000000, 0.000000, 0.000000
0.000000, 0.000000, 0.000000, 0.000000
0.000000, 0.990596, 0.000000, 0.000000
0.000000, 0.000000, 0.000000, 0.000000
0.000000, 0.000000, 0.000000, 0.000000
0.952999, 0.000000, 0.000000, 0.000000
0.000000, 0.000000, 0.000000, 0.000000
0.000000, 0.000000, 0.000000, 0.000000
0.000000, 0.000000, 0.000000, 0.977429
0.000000, 0.000000, 0.000000, 0.000000
0.000000, 0.998124, 0.000000, 0.000000
0.000000, 0.000000, 0.000000, 0.000000
0.000000, 0.000000, 0.000000, 0.000000
0.000000, 0.000000, 0.000000, 0.000000
0.000000, 0.000000, 0.000000, 0.000000
0.000000, 0.000000, 0.000000, 0.000000
0.000000, 0.000000, 0.000000, 0.997464
0.000000, 0.000000, 0.000000, 0.000000
0.000000, 0.000000, 0.000000, 0.000000
0.000000, 0.000000, 0.000000, 0.000000
2.00483, 0.000000, 0.000000, 0.000000
0.000000, 0.000000, 0.000000, 0.000000
0.000000, 0.000000, 0.000000, 0.000000
0.000000, 0.000000, 0.000000, 0.000000
0.000000, 0.000000, 0.000000, 0.000000
0.000000, 0.000000, 0.000000, 0.000000
0.000000, 0.000000, 0.000000, 0.000000
0.000000, 0.000000, 0.000000, 0.000000
0.000000, 0.000000, 0.992617, 0.000000
0.000000, 0.000000, 1.00187, 0.000000
0.000000, 0.000000, 0.000000, 0.000000
0.000000, 0.000000, 0.000000, 0.000000
0.000000, 0.000000, 0.000000, 0.000000
0.000000, 0.000000, 0.000000, 0.000000
0.000000, 0.000000, 0.992617, 0.000000
0.000000, 0.000000, 0.000000, 0.000000
0.000000, 0.000000, 0.000000, 0.99925
0.000000, 0.000000, 0.000000, 0.000000
0.000000, 0.000000, 0.000000, 0.000000
1.98971, 0.000000, 0.000000, 0.000000
0.000000, 0.000000, 0.000000, 0.000000
0.000000, 0.000000, 0.000000, 0.000000
0.000000, 0.000000, 0.000000, 0.984872
0.000000, 0.000000, 0.000000, 0.000000
0.000000, 0.000000, 0.000000, 0.000000
0.000000, 0.000000, 0.000000, 0.000000
0.000000, 0.000000, 0.000000, 0.000000
0.000000, 0.000000, 0.000000, 0.000000
0.000000, 0.000000, 0.000000, 0.000000
0.000000, 0.000000, 0.972943, 0.000000
0.000000, 0.000000, 0.000000, 0.000000
0.000000, 0.000000, 0.000000, 0.000000
0.000000, 0.000000, 0.000000, 0.000000
0.000000, 0.000000, 0.000000, 0.000000
0.000000, 0.986938, 0.000000, 0.000000
0.000000, 0.000000, 0.000000, 0.985608
0.000000, 0.000000, 0.991221, 0.994011
0.000000, 0.000000, 0.000000, 1.00651
0.986465, 0.000000, 0.000000, 0.000000
0.000000, 0.000000, 0.000000, 0.000000
1.03117, 0.98988, 0.000000, 0.000000
0.000000, 0.000000, 0.000000, 0.000000
0.000000, 0.000000, 0.970628, 0.000000
0.000000, 0.000000, 0.000000, 0.000000
0.000000, 0.000000, 0.000000, 0.000000
0.989461, 0.000000, 0.992366, 0.000000
1.00429, 0.000000, 0.000000, 0.000000
0.000000, 0.000000, 0.000000, 0.000000
0.000000, 0.000000, 0.000000, 0.000000
0.000000, 0.000000, 0.000000, 0.000000
0.000000, 0.000000, 0.000000, 0.000000
0.000000, 0.000000, 0.000000, 0.000000
0.000000, 0.000000, 0.963394, 0.000000
0.000000, 0.000000, 0.000000, 0.000000
0.000000, 0.992571, 0.99191, 0.000000
0.000000, 0.000000, 0.000000, 0.000000
0.000000, 0.000000, 0.983919, 0.000000
0.000000, 1.00073, 0.000000, 0.000000
0.000000, 0.000000, 2.02112, 0.000000
0.000000, 0.000000, 0.000000, 0.000000
0.000000, 0.000000, 0.000000, 0.000000
0.000000, 1.00168, 0.000000, 0.000000
0.000000, 0.000000, 0.000000, 0.000000
0.000000, 0.000000, 0.000000, 0.000000
0.000000, 0.000000, 0.000000, 0.000000
0.000000, 0.000000, 0.000000, 0.000000
0.000000, 0.000000, 0.000000, 1.00596
0.000000, 0.000000, 0.982552, 0.000000
0.000000, 0.000000, 0.000000, 0.000000
0.000000, 0.000000, 0.000000, 0.000000
0.000000, 0.977629, 0.000000, 0.000000
0.000000, 0.000000, 0.000000, 0.000000
0.000000, 1.00005, 0.988275, 0.000000
0.000000, 0.000000, 0.000000, 0.000000
0.000000, 1.00358, 1.01545, 0.000000
0.000000, 0.000000, 0.000000, 0.000000
0.000000, 0.000000, 0.000000, 1.00488
0.000000, 0.000000, 0.000000, 0.000000
0.000000, 0.000000, 0.000000, 0.000000
0.000000, 0.000000, 0.000000, 0.000000
0.000000, 0.000000, 0.000000, 0.000000
1.00037, 0.000000, 0.000000, 0.000000
0.000000, 0.000000, 0.000000, 0.000000
0.000000, 0.972943, 0.000000, 0.000000
0.000000, 0.000000, 0.000000, 0.993143
0.000000, 0.000000, 0.000000, 0.000000
0.000000, 0.000000, 0.000000, 0.000000
0.000000, 0.987688, 0.000000, 0.000000
0.000000, 0.000000, 0.000000, 0.000000
0.000000, 0.000000, 0.000000, 2.01334
0.000000, 0.000000, 0.000000, 0.000000
0.000000, 0.000000, 0.000000, 0.000000
0.000000, 0.000000, 0.000000, 0.000000
0.000000, 0.000000, 0.000000, 0.000000
1.97039, 0.000000, 0.000000, 0.000000
0.000000, 0.000000, 0.000000, 1.00761
0.000000, 0.000000, 0.000000, 1.9831
0.000000, 0.000000, 0.000000, 0.000000
0.000000, 1.0018, 0.000000, 0.000000
0.000000, 0.000000, 0.982887, 0.000000
0.988569, 0.000000, 0.000000, 1.0114
0.000000, 0.000000, 0.000000, 0.000000
0.000000, 0.000000, 0.000000, 0.000000
0.000000, 0.000000, 0.000000, 0.000000
0.000000, 0.000000, 0.000000, 1.30331
0.000000, 0.000000, 0.99262, 0.000000
0.000000, 0.000000, 0.000000, 0.000000
0.000000, 0.000000, 0.000000, 0.987508
0.000000, 0.000000, 0.000000, 0.000000
0.000000, 0.999659, 0.000000, 1.00329
0.000000, 0.987508, 0.000000, 0.000000
0.000000, 0.000000, 0.000000, 0.000000
0.000000, 0.000000, 0.000000, 0.000000
0.000000, 0.000000, 0.000000, 0.000000
0.000000, 0.000000, 1.008, 0.991993
1.01495, 1.00382, 0.000000, 0.992571
0.000000, 0.000000, 0.000000, 0.000000
0.000000, 1.01763, 1.00074, 0.993645
0.000000, 0.000000, 0.978598, 0.000000
0.000000, 3.02468, 0.000000, 0.992571
0.995995, 1.00538, 0.000000, 0.000000
1.00487, 0.000000, 0.000000, 0.000000
0.995279, 0.000000, 0.000000, 0.000000
0.000000, 0.000000, 0.994035, 0.000000
0.000000, 0.000000, 0.978339, 0.000000
0.000000, 0.000000, 0.000000, 0.993921
1.03093, 0.990651, 0.000000, 1.00146
0.981991, 0.000000, 0.991793, 1.97431
0.000000, 0.000000, 0.000000, 0.982887
0.000000, 0.000000, 0.000000, 0.000000
0.000000, 0.000000, 0.000000, 0.977426
0.000000, 0.000000, 1.98933, 0.000000
0.000000, 0.000000, 0.000000, 0.000000
0.000000, 0.000000, 0.000000, 0.000000
0.000000, 0.000000, 0.98537, 0.000000
0.000000, 0.000000, 0.000000, 0.000000
0.000000, 1.9933, 0.000000, 0.000000
0.000000, 0.000000, 0.000000, 2.00171
0.99925, 0.000000, 1.03064, 0.000000
2.02178, 0.000000, 0.000000, 0.999132
0.000000, 0.000000, 0.000000, 0.999482
0.000000, 0.989299, 0.000000, 0.983691
0.000000, 0.000000, 1.02508, 0.000000
0.000000, 0.000000, 0.000000, 0.993514
0.000000, 0.000000, 0.000000, 2.00443
0.000000, 0.000000, 0.000000, 0.989461
0.000000, 0.984319, 1.00651, 0.000000
0.000000, 0.000000, 0.000000, 1.00024
0.000000, 0.000000, 1.00595, 0.000000
1.00617, 0.978598, 0.000000, 0.990207
0.000000, 1.0092, 0.000000, 0.000000
0.000000, 0.976708, 1.01763, 0.000000
0.000000, 0.000000, 0.000000, 0.000000
0.974124, 0.969502, 0.000000, 0.000000
0.000000, 1.98427, 0.000000, 1.00165
0.986, 1.98115, 0.997827, 0.000000
0.000000, 0.000000, 0.000000, 0.000000
0.000000, 1.02498, 0.000000, 0.000000
0.000000, 0.000000, 1.03777, 0.993514
0.000000, 1.00007, 0.000000, 0.988942
0.000000, 0.994035, 0.000000, 0.000000
0.000000, 1.00583, 0.000000, 0.000000
0.994152, 0.000000, 0.995844, 0.000000
0.000000, 0.984386, 0.995279, 0.000000
2.0004, 0.000000, 0.997718, 0.990065
0.000000, 0.000000, 0.000000, 0.000000
2.00409, 0.000000, 1.01441, 0.982542
0.000000, 0.000000, 1.00109, 0.000000
0.000000, 0.000000, 0.000000, 0.991993
0.970123, 0.000000, 0.000000, 0.000000
1.00408, 0.000000, 0.997827, 0.000000
0.000000, 1.02453, 0.000000, 0.000000
0.000000, 0.000000, 0.000000, 0.000000
0.000000, 1.03082, 0.000000, 0.984659
1.99059, 0.000000, 0.000000, 0.000000
0.000000, 1.0284, 0.000000, 1.9854
0.000000, 0.000000, 0.000000, 0.998874
0.998924, 1.96995, 2.00724, 0.000000
0.960999, 0.000000, 0.000000, 0.000000
0.998102, 2.01762, 0.000000, 1.02767
1.98639, 0.986473, 0.000000, 2.04574
1.97073, 0.000000, 1.01753, 2.0003
1.00478, 0.000000, 0.000000, 0.000000
0.000000, 0.968574, 0.983593, 1.01176
0.990596, 0.990065, 2.02756, 0.970628
2.99514, 0.000000, 0.985318, 0.000000
0.000000, 1.01763, 0.986088, 1.96747
0.993782, 1.98581, 1.01057, 0.989273
2.01861, 0.000000, 1.97993, 1.98592
0.000000, 1.02258, 0.000000, 0.983508
0.995864, 0.987345, 0.984784, 0.000000
0.993645, 0.982386, 2.00051, 4.04503
3.95853, 5.00445, 0.978306, 0.975459
1.9627, 1.01336, 2.96781, 1.98392
3.97893, 2.03604, 4.99882, 0.991859
3.97147, 3.01895, 0.995347, 3.97327
2.01105, 0.995216, 0.000000, 1.00583
0.965791, 2.98152, 1.99283, 0.982542
1.01495, 0.980006, 0.999407, 0.000000
0.000000, 0.000000, 0.989461, 1.15151
0.998308, 0.992886, 0.000000, 2.9946
2.98005, 2.98242, 4.98448, 2.98504
2.98742, 5.95155, 1.00449, 2.97267
0.000000, 1.02066, 1.01445, 0.000000
1.98336, 3.93541, 7.99779, 4.98552
5.94874, 2.03091, 1.99442, 8.9412
3.97703, 1.96229, 3.97696, 4.00412
5.97425, 6.93559, 3.02308, 6.99621
11.9272, 7.92339, 7.89682, 13.9363
6.9605, 17.9081, 7.9685, 12.8888
15.976, 9.95668, 7.9727, 12.9191
15.9917, 15.8734, 13.9319, 14.9892
27.9297, 41.8296, 26.7505, 41.7886
241.229, 406.484, 758.609, 1357.54
1298.71, 1884.99, 2584.41, 4985.9
590.785, 237.41, 98.8567, 55.9021
17.9228, 19.8687, 19.0525, 9.99942
8.98663, 11.9893, 9.05729, 5.95877
13.1573, 5.94451, 4.96858, 9.852
6.07283, 6.99915, 4.99306, 4.98429
6.91811, 7.90654, 6.9664, 5.98418
4.98998, 4.99888, 3.98156, 0.000000
2.00236, 3.91031, 0.985137, 2.00486
4.94442, 3.96675, 2.99919, 3.95349
3.00604, 2.02199, 6.00488, 3.98396
3.00796, 5.98789, 1.97204, 1.00914
0.995193, 4.02244, 4.00892, 1.01009
2.98175, 1.99599, 0.981773, 0.000000
5.98308, 2.02575, 2.97811, 0.995434
1.95603, 1.97109, 2.01201, 2.01178
2.01831, 0.000000, 1.98554, 0.000000
2.00882, 4.01, 0.000000, 1.02859
3.00772, 2.98074, 0.000000, 3.02306
0.958477, 1.9905, 2.00151, 0.000000
1.03011, 3.00568, 0.000000, 1.99237
2.98676, 0.979422, 1.96365, 0.994689
0.000000, 0.000000, 2.01359, 0.995372
1.01492, 1.9605, 0.000000, 1.97379
0.000000, 1.99116, 2.99571, 1.98158
0.995516, 3.95054, 0.996983, 0.985361
0.997652, 0.000000, 1.03011, 2.96168
1.00539, 1.00701, 2.00726, 0.996212
1.002, 0.000000, 3.03596, 0.000000
1.00265, 0.000000, 1.99873, 2.95963
1.99473, 2.01592, 0.000000, 2.00318
3.01103, 2.03534, 0.000000, 0.000000
0.968574, 1.95299, 0.977736, 0.000000
1.98232, 0.99552, 1.01057, 1.01014
0.978767, 1.92348, 2.02821, 1.00982
1.99009, 0.994484, 1.00259, 0.000000
1.01495, 0.997464, 0.988569, 0.000000
1.98958, 0.998308, 2.05035, 0.000000
0.000000, 0.000000, 0.000000, 2.01519
1.9961, 0.000000, 0.000000, 1.00725
0.989105, 1.01009, 0.000000, 0.000000
0.000000, 0.990254, 1.98701, 0.969094
0.000000, 0.000000, 0.000000, 0.987508
0.000000, 0.000000, 0.000000, 3.01146
0.000000, 0.992222, 0.000000, 0.000000
1.00499, 0.000000, 0.000000, 0.97891
1.99272, 0.000000, 0.000000, 1.01009
0.000000, 1.03375, 0.000000, 1.97283
0.000000, 1.99203, 1.02258, 0.000000
0.000000, 0.999482, 0.000000, 1.00449
0.000000, 0.979422, 0.995193, 0.000000
1.00436, 0.000000, 0.000000, 0.98691
0.980006, 0.000000, 0.991943, 0.000000
1.0284, 0.989461, 0.999482, 0.000000
0.000000, 0.000000, 0.000000, 0.000000
0.993788, 0.000000, 2.01674, 0.000000
0.993375, 0.997966, 0.000000, 0.000000
0.000000, 0.000000, 0.990874, 0.000000
1.02859, 0.000000, 0.000000, 0.000000
0.999002, 0.000000, 0.000000, 0.999261
0.000000, 0.000000, 0.000000, 0.980244
0.000000, 0.000000, 0.000000, 0.984872
0.000000, 2.00146, 2.96935, 0.989402
1.98451, 0.978134, 1.00896, 0.000000
0.000000, 0.000000, 0.994251, 2.98067
0.000000, 0.000000, 0.000000, 0.000000
1.00007, 0.000000, 0.000000, 0.000000
1.02963, 0.000000, 0.000000, 0.000000
0.000000, 0.000000, 0.000000, 0.000000
0.000000, 0.000000, 0.000000, 0.988794
0.000000, 2.97607, 0.000000, 0.000000
0.000000, 1.93421, 0.000000, 0.972822
0.987746, 0.979245, 0.000000, 0.000000
2.01511, 1.99434, 0.000000, 1.01715
1.04108, 0.996004, 0.000000, 0.000000
0.000000, 0.000000, 0.000000, 0.992319
2.00193, 2.02579, 1.00594, 1.03407
0.992427, 0.000000, 0.000000, 0.000000
0.000000, 0.000000, 0.000000, 0.97911
0.982377, 0.000000, 0.000000, 0.000000
0.000000, 0.000000, 0.000000, 0.993645
0.000000, 0.000000, 0.000000, 0.000000
0.000000, 1.01009, 0.000000, 1.01161
0.000000, 0.000000, 0.000000, 0.989297
0.000000, 2.04938, 1.02586, 0.000000
0.000000, 0.986584, 0.000000, 0.000000
0.000000, 0.000000, 0.000000, 0.000000
0.000000, 0.000000, 0.999444, 1.00259
0.000000, 0.000000, 0.000000, 0.000000
0.000000, 0.000000, 0.000000, 0.000000
0.985519, 0.000000, 0.995067, 0.000000
0.000000, 0.000000, 0.000000, 0.000000
0.000000, 0.000000, 0.000000, 0.000000
0.000000, 0.000000, 0.000000, 0.989461
0.000000, 0.000000, 0.000000, 0.000000
0.000000, 1.01052, 2.01232, 1.01545
1.00076, 0.000000, 1.00387, 0.000000
1.00278, 0.000000, 0.000000, 0.000000
0.000000, 0.000000, 0.000000, 0.994035
0.000000, 0.000000, 0.991445, 0.000000
0.000000, 0.993959, 0.000000, 0.000000
0.995216, 0.000000, 1.01492, 0.000000
0.000000, 0.000000, 0.000000, 0.000000
0.981658, 0.000000, 0.000000, 0.000000
0.000000, 0.000000, 0.987345, 0.987035
0.000000, 1.00265, 0.000000, 0.000000
0.98114, 0.000000, 0.000000, 0.000000
0.000000, 0.000000, 0.000000, 0.000000
0.000000, 0.000000, 0.000000, 0.000000
1.00776, 0.000000, 0.000000, 0.000000
0.000000, 1.00682, 0.000000, 0.000000
1.9734, 0.000000, 0.972822, 0.000000
0.966924, 0.000000, 0.000000, 0.000000
0.000000, 0.000000, 0.000000, 0.000000
0.000000, 1.02767, 0.988163, 0.000000
0.000000, 1.01364, 0.000000, 0.000000
0.000000, 0.000000, 0.000000, 0.000000
1.02008, 0.984319, 0.000000, 0.000000
0.990701, 0.000000, 0.000000, 1.00168
0.000000, 0.96292, 0.000000, 0.994962
0.979151, 0.000000, 0.000000, 0.000000
0.000000, 0.982097, 1.00259, 0.000000
0.000000, 0.996711, 0.000000, 0.000000
0.000000, 0.000000, 2.94068, 0.000000
0.990386, 0.000000, 1.0005, 1.30331
0.000000, 0.000000, 0.000000, 1.01441
0.000000, 0.000000, 0.000000, 0.000000
0.000000, 0.990651, 0.000000, 0.991793
0.000000, 0.000000, 0.000000, 0.000000
0.985137, 0.000000, 0.000000, 0.000000
0.000000, 0.000000, 1.01014, 0.000000
0.000000, 0.000000, 0.000000, 0.000000
1.00092, 0.000000, 0.000000, 0.000000
0.000000, 0.976949, 0.000000, 0.000000
0.000000, 0.000000, 0.000000, 0.000000
0.000000, 0.000000, 1.00033, 0.000000
0.000000, 0.000000, 2.00125, 0.000000
0.000000, 0.971294, 0.000000, 1.99954
0.000000, 0.000000, 0.000000, 1.94836
0.990101, 0.000000, 0.000000, 0.000000
0.997476, 0.000000, 1.02202, 0.000000
1.00856, 0.000000, 0.000000, 0.000000
0.000000, 0.982225, 0.991943, 0.000000
0.999444, 0.000000, 1.00278, 0.000000
0.982681, 0.000000, 0.000000, 0.973452
0.986179, 0.000000, 0.999809, 0.000000
1.01553, 1.003, 0.000000, 0.995891
0.000000, 0.000000, 0.000000, 0.000000
0.000000, 0.000000, 0.000000, 0.000000
0.994333, 0.000000, 0.971294, 0.000000
0.000000, 0.000000, 0.000000, 1.01173
0.000000, 0.000000, 0.000000, 0.000000
0.000000, 0.994105, 0.000000, 0.000000
0.998446, 0.000000, 0.989438, 0.000000
0.000000, 1.01336, 0.000000, 0.000000
0.000000, 2.00965, 0.000000, 0.000000
0.000000, 0.000000, 0.000000, 1.01545
0.000000, 0.000000, 0.000000, 0.000000
0.000000, 0.000000, 0.000000, 0.000000
0.982377, 0.000000, 0.000000, 0.000000
0.000000, 2.00052, 1.97714, 0.000000
0.000000, 0.000000, 1.00438, 0.000000
1.97141, 0.000000, 0.000000, 0.000000
0.000000, 0.000000, 0.000000, 1.00394
0.000000, 0.000000, 0.000000, 0.000000
0.000000, 0.000000, 0.000000, 0.000000
0.000000, 0.000000, 0.000000, 0.000000
1.99344, 0.000000, 0.000000, 0.000000
0.000000, 0.000000, 0.000000, 0.000000
0.990651, 0.000000, 0.000000, 0.000000
0.000000, 0.000000, 0.000000, 0.000000
0.000000, 1.00701, 0.000000, 0.000000
0.000000, 0.000000, 0.992561, 0.980006
0.000000, 0.000000, 0.000000, 0.000000
0.000000, 1.00583, 0.000000, 0.000000
0.000000, 1.00024, 0.000000, 0.000000
1.00329, 0.982552, 0.000000, 0.000000
0.000000, 0.000000, 1.01765, 0.000000
0.000000, 0.000000, 0.000000, 0.000000
0.000000, 0.000000, 0.000000, 0.000000
0.952999, 0.995341, 0.000000, 1.02997
0.000000, 1.0018, 0.000000, 0.000000
0.000000, 1.95009, 0.000000, 0.000000
0.000000, 0.000000, 0.000000, 0.988942
0.000000, 0.000000, 0.974622, 0.000000
0.983878, 0.986875, 0.000000, 1.00168
0.000000, 0.000000, 0.000000, 0.000000
0.000000, 0.000000, 0.000000, 0.000000
1.9787, 1.00329, 2.01299, 0.000000
0.000000, 0.000000, 1.00095, 0.000000
0.000000, 0.998067, 0.994354, 2.9734
0.998266, 1.00033, 0.989225, 0.996545
0.000000, 0.000000, 0.980006, 0.000000
0.000000, 0.995864, 0.000000, 0.986465
0.988589, 0.000000, 1.96891, 0.000000
0.000000, 1.99601, 1.01273, 0.000000
2.91516, 0.000000, 0.000000, 0.000000
0.000000, 0.000000, 0.000000, 0.000000
1.02077, 0.000000, 0.997665, 0.000000
0.000000, 0.000000, 0.000000, 0.000000
0.984319, 0.000000, 0.000000, 1.00886
0.000000, 0.000000, 1.00486, 0.992886
0.000000, 0.000000, 0.000000, 0.000000
0.000000, 0.000000, 0.000000, 0.000000
0.000000, 0.000000, 0.982542, 0.000000
0.000000, 0.000000, 0.000000, 0.999659
0.983691, 0.000000, 0.000000, 0.998067
0.000000, 1.00109, 0.000000, 0.000000
0.000000, 0.000000, 0.000000, 1.00886
0.995018, 0.000000, 0.000000, 0.000000
0.000000, 0.000000, 0.000000, 0.978134
0.000000, 0.000000, 0.000000, 0.990386
0.985519, 0.000000, 0.999809, 1.01996
0.000000, 0.000000, 0.000000, 0.978662
0.000000, 0.000000, 0.000000, 1.98647
0.000000, 0.000000, 0.000000, 0.000000
0.991943, 0.000000, 0.997875, 0.000000
0.000000, 0.000000, 0.000000, 0.000000
0.977426, 2.9917, 0.000000, 0.000000
0.000000, 0.000000, 0.000000, 0.000000
1.01373, 0.000000, 0.000000, 0.970123
1.98822, 0.000000, 0.000000, 0.000000
1.00617, 0.000000, 0.000000, 0.000000
0.000000, 0.000000, 1.00259, 0.976638
0.000000, 0.000000, 0.000000, 0.000000
0.000000, 0.000000, 0.000000, 0.000000
0.000000, 2.02819, 0.000000, 0.000000
0.000000, 0.000000, 0.000000, 0.000000
1.02638, 0.000000, 0.000000, 0.000000
0.983123, 0.000000, 0.000000, 0.997803
0.000000, 0.000000, 0.000000, 0.000000
1.00896, 0.000000, 0.000000, 0.991158
0.000000, 0.000000, 0.000000, 0.000000
0.000000, 0.000000, 0.000000, 0.000000
0.000000, 0.000000, 0.000000, 0.000000
1.01345, 0.000000, 0.000000, 0.000000
0.000000, 0.000000, 0.000000, 2.98673
0.000000, 0.000000, 0.000000, 0.997966
0.000000, 0.000000, 1.00015, 0.000000
0.968574, 0.000000, 0.980006, 1.96341
0.000000, 0.996948, 0.000000, 1.00394
0.982681, 0.000000, 0.000000, 0.000000
0.000000, 0.991445, 0.000000, 0.000000
0.000000, 0.993866, 0.000000, 0.972822
1.0092, 2.00641, 0.988589, 0.970123
0.000000, 0.000000, 0.000000, 0.000000
1.00236, 0.998446, 0.000000, 0.000000
1.00076, 2.00243, 1.00033, 1.03064
1.00207, 0.000000, 0.000000, 0.000000
0.000000, 0.000000, 0.000000, 0.000000
1.00024, 0.000000, 0.000000, 0.000000
0.994251, 0.000000, 0.000000, 0.000000
0.982888, 0.000000, 0.000000, 0.000000
0.994484, 0.000000, 0.000000, 0.000000
2.00948, 0.000000, 0.000000, 1.97176
0.000000, 0.000000, 0.000000, 0.000000
1.00539, 0.000000, 1.00168, 1.99956
0.000000, 0.996004, 0.000000, 0.000000
0.000000, 0.000000, 0.000000, 0.000000
0.000000, 0.000000, 1.01147, 0.000000
1.00005, 0.985255, 0.987345, 0.000000
0.000000, 0.000000, 0.000000, 0.000000
1.0092, 1.00196, 0.985436, 1.30331
0.000000, 0.987896, 0.000000, 0.98897
0.000000, 0.000000, 0.990244, 0.000000
0.999809, 0.000000, 2.00326, 0.993866
0.000000, 1.00007, 0.000000, 0.000000
0.987345, 0.990416, 0.000000, 0.000000
0.000000, 0.995434, 0.000000, 0.000000
0.000000, 0.000000, 0.000000, 0.000000
0.000000, 0.000000, 0.000000, 0.000000
0.000000, 0.000000, 0.999444, 0.000000
0.000000, 0.000000, 0.986063, 0.967456
0.000000, 1.00127, 0.978339, 0.000000
0.000000, 0.000000, 0.000000, 0.000000
0.000000, 0.000000, 0.995341, 0.000000
1.01364, 0.000000, 0.000000, 0.000000
0.000000, 0.000000, 0.000000, 0.000000
2.01119, 1.02859, 2.98482, 0.989273
0.000000, 1.01777, 0.000000, 0.000000
0.000000, 0.000000, 0.000000, 0.000000
2.00123, 0.000000, 0.000000, 0.983989
0.000000, 0.000000, 0.996403, 0.000000
0.000000, 0.000000, 0.982097, 0.982377
0.000000, 0.000000, 0.000000, 0.000000
0.000000, 0.994484, 0.968574, 0.000000
0.000000, 0.000000, 0.000000, 1.95151
0.000000, 0.000000, 0.000000, 0.000000
0.000000, 0.000000, 0.000000, 0.000000
0.000000, 0.000000, 0.993812, 0.000000
0.973593, 1.00538, 0.000000, 1.02559
0.000000, 0.982225, 1.01557, 0.967456
0.000000, 0.000000, 0.000000, 0.000000
0.000000, 0.000000, 0.000000, 0.990386
0.978951, 0.000000, 0.000000, 1.00358
0.000000, 0.000000, 0.000000, 0.990386
0.992417, 0.000000, 0.000000, 0.000000
0.000000, 0.000000, 0.000000, 0.000000
0.000000
*END

*EOF