File: CuClQDs/XRD&XRF/20190611/A59_2thetaomega_2θ_ω.asc
*TYPE		=  Raw
*CLASS		=  ASCII CLASS
*SAMPLE		=  A59
*COMMENT	=
*FNAME		=  A59_2thetaomega_2θ_ω.asc
*DATE		=  11-Jun-19 11:40

*GROUP_COUNT	=  1
*GONIO		=  SmartLab(In-plane), 0.000000
*ATTACHMENT	=  χφZクレードル
*ASC		=  0, 0, 0.000000, 0.000000
*I_MONOCHRO	=  Ge(220)x2, 0.000000
*FILTER		=  None
*C_MONOCHRO	=  No_unit, 0.000000
*SLIT_NAME	=  0, 入射スリット
*SLIT_NAME	=  1, 受光スリット1
*SLIT_NAME	=  2, 受光スリット2
*COUNTER	=  HyPix 3000(H), 0
*POS_FORMAT	=  0
*SCAN_AXIS	=  2Theta/Omega
*MEAS_MODE	=  Continuous Scanning
*TARGET		=  29
*XRAY_CHAR	=  K-ALPHA1
*WAVE_LENGTH1	=  1.54059
*WAVE_LENGTH2	=  1.54441
*THICKNESS	=  0, 0.000000
*MU		=  0, 0.000000
*SCAN_MODE	=  2Theta/Omega
*SPEED_DIM	=  sec./step
*XUNIT		=  deg.
*YUNIT		=  counts
*SCALE_MODE	=  1
*REP_COUNT	=  0
*SE_COUNT	=  0
*STD_MATERIAL	=  Unknown, Unknown, 0.000000, 0.000000, 0.000000, 0.000000, 0.000000, 0.000000
*LATT_CONS	=  0, Unknown, Unknown, 0.000000, 0.000000, 0.000000, 0.000000, 0.000000, 0.000000
*SEC_COUNT	=  1
*TSPEC_SIZE	=  0
*EXTRA_SIZE	=  0
*MEMO		=

*BEGIN
*GROUP		=  0
*START		=  20
*STOP		=  90
*STEP		=  0.01
*OFFSET		=  0.000000
*SPEED		=  0.116312
*SLIT_SPEC	=  0, 0.500mm, 0.5, 0.000000
*SLIT_SPEC	=  1, 0.500mm, 0.5, 0.000000
*SLIT_SPEC	=  2, 0.500mm, 0.5, 0.000000
*KV		=  45
*MA		=  200
*LOW		=  0.000000
*HIGH		=  0.000000
*CTEMPER	=  0, 0.000000
*CTEMPER	=  1, 0.000000
*CTEMPER	=  2, 0.000000
*PAREX		=  0, 0.000000
*PAREX		=  1, 0.000000
*PAREX		=  2, 0.000000
*PAREX		=  3, 0.000000
*PAREX		=  4, 0.000000
*PAREX		=  5, 0.000000
*PAREX		=  6, 0.000000
*PAREX		=  7, 0.000000
*PAREX		=  8, 0.000000
*PAREX		=  9, 0.000000
*PAREX		=  10, 0.000000
*PAREX		=  11, 0.000000
*PAREX		=  12, 0.000000
*PAREX		=  13, 0.000000
*PAREX		=  14, 0.000000
*PAREX		=  15, 0.000000
*FULL_SCALE	=  779764
*INDEX		=  0, 0, 0
*COUNT		=  7001
0.984948, 2.9704, 2.00004, 2.97201
0.992863, 0.000000, 0.000000, 4.95029
1.96944, 2.00334, 3.01168, 1.98336
1.99921, 0.000000, 0.991445, 0.000000
3.01563, 1.00583, 0.998526, 0.988275
0.000000, 1.01091, 1.98093, 0.997815
1.99063, 2.00463, 3.97039, 1.96419
0.999482, 2.01099, 1.00502, 2.01148
2.99502, 0.000000, 1.02824, 1.00436
1.01777, 1.97993, 1.00776, 1.99672
2.97848, 0.000000, 0.000000, 1.99063
2.97509, 1.98866, 1.97967, 1.98168
2.98707, 1.99877, 0.98995, 0.000000
1.98583, 2.99425, 1.99447, 1.00099
1.97754, 0.96292, 0.96292, 3.97924
0.988009, 0.000000, 0.000000, 2.01528
0.96292, 3.96156, 0.000000, 3.99572
1.00076, 0.960941, 0.986063, 0.999809
1.99388, 0.98995, 0.000000, 1.00005
0.000000, 1.97171, 0.978662, 0.992571
1.98951, 0.000000, 0.000000, 1.00476
2.9685, 0.000000, 0.000000, 1.99737
0.990596, 2.98337, 5.96875, 0.000000
0.000000, 1.00186, 1.99338, 0.991785
1.00438, 0.982681, 1.01273, 0.000000
1.97721, 1.02883, 1.98325, 1.00258
2.96605, 1.97961, 1.97263, 2.98176
0.973702, 0.000000, 0.983874, 0.000000
0.000000, 2.01969, 0.000000, 0.970123
0.996948, 1.96414, 1.97908, 1.98119
1.96425, 4.01601, 0.992222, 2.99991
1.97929, 0.971962, 0.000000, 2.01977
0.000000, 0.970123, 1.01164, 1.96991
0.000000, 0.998924, 0.98752, 0.000000
0.998297, 0.000000, 2.9603, 2.01642
2.98666, 2.01316, 1.00658, 2.9714
0.000000, 2.00521, 3.02146, 3.94535
0.000000, 1.01147, 3.92595, 0.988275
2.01439, 1.03375, 2.01925, 1.95567
0.000000, 1.0032, 1.95143, 2.13672
1.00196, 4.9893, 0.000000, 1.00187
2.96865, 2.95791, 6.98967, 3.97612
0.990516, 2.00023, 2.97831, 0.000000
0.000000, 0.9942, 2.97451, 1.02824
0.988463, 5.00429, 0.000000, 0.991943
0.000000, 2.97366, 0.000000, 2.9427
1.94995, 3.98284, 1.98651, 0.995843
0.000000, 1.00139, 0.985957, 0.997665
1.00015, 0.000000, 2.03376, 1.98747
1.00531, 0.000000, 2.96153, 1.98264
0.000000, 0.998526, 0.995341, 0.000000
0.998924, 0.000000, 1.01936, 1.00099
4.00132, 2.96082, 1.97773, 3.99513
0.000000, 0.999002, 3.98509, 2.02446
4.00174, 0.000000, 0.000000, 2.9841
1.98596, 0.000000, 0.993219, 1.97722
3.94269, 1.99462, 1.99065, 0.982542
2.97785, 0.000000, 2.92768, 0.975459
0.978306, 1.98271, 3.00903, 2.95722
1.96254, 0.994792, 0.000000, 0.000000
0.960941, 0.971962, 2.99738, 1.97126
0.994707, 1.02963, 3.02283, 0.000000
1.98091, 1.98785, 1.96594, 0.989299
0.967456, 0.993219, 1.99509, 4.01647
2.96762, 0.000000, 0.000000, 0.997875
0.000000, 3.9794, 1.99873, 2.00936
0.984319, 2.95871, 0.983123, 1.00377
0.000000, 1.99665, 0.996604, 1.98087
0.99786, 2.96946, 4.97654, 0.978134
0.000000, 1.01209, 6.92117, 3.9717
0.000000, 2.99793, 1.00199, 0.000000
0.984412, 0.000000, 0.000000, 0.000000
2.01898, 2.00742, 3.06605, 1.95831
1.98056, 2.97484, 1.99483, 0.989318
0.000000, 0.000000, 1.01753, 1.98372
0.000000, 1.9952, 0.999482, 0.000000
0.996774, 1.97869, 0.000000, 0.000000
0.000000, 1.00998, 0.982377, 2.12894
1.97555, 0.000000, 1.97407, 0.000000
1.00539, 0.997966, 1.98989, 0.993866
0.998266, 1.97543, 1.98924, 0.000000
1.01228, 0.000000, 2.96122, 0.000000
0.000000, 1.98268, 2.00426, 0.994105
0.988463, 2.08217, 0.9942, 0.000000
1.02218, 0.000000, 1.98863, 2.95943
1.00532, 0.971059, 0.000000, 3.95049
0.991785, 1.02498, 0.997464, 1.96291
2.00215, 1.99912, 1.99528, 1.99488
1.97231, 1.98617, 0.999618, 0.997875
2.00778, 0.000000, 1.00323, 0.000000
1.98769, 2.00475, 0.000000, 3.9391
2.98232, 0.000000, 4.969, 1.00486
0.997815, 2.00289, 1.97446, 1.963
1.00387, 0.000000, 0.998924, 0.994782
2.95548, 2.01457, 0.976708, 0.000000
1.99225, 0.000000, 4.99183, 1.01936
0.000000, 2.99398, 5.96481, 0.989869
2.99839, 0.994333, 0.000000, 1.96438
1.99574, 2.02375, 1.00476, 2.97865
0.000000, 2.03684, 3.99983, 0.989318
1.98756, 1.00099, 2.99186, 2.00039
1.99955, 0.000000, 3.02799, 0.982243
1.99394, 3.98721, 2.97454, 1.96984
2.97048, 5.96295, 4.90171, 1.01753
0.000000, 0.980693, 0.980313, 2.00285
4.01893, 0.987896, 2.93612, 0.000000
0.000000, 0.995843, 1.0199, 1.98304
1.03082, 1.99177, 0.991218, 1.99337
1.00146, 0.993219, 1.97189, 0.000000
1.97996, 3.97616, 0.988969, 0.998328
0.000000, 2.95654, 0.000000, 0.985519
1.94481, 3.00871, 0.000000, 1.968
2.96749, 0.988022, 0.000000, 3.00865
1.96641, 3.00836, 3.95368, 1.97945
0.000000, 1.96865, 2.17021, 3.02617
0.000000, 1.01016, 0.000000, 0.977426
1.00917, 0.000000, 0.970123, 1.97045
0.000000, 5.98641, 1.02532, 1.00368
2.95109, 0.998276, 0.000000, 0.952999
3.92908, 1.003, 1.99214, 0.991793
2.02939, 4.95518, 2.95674, 4.96012
4.00809, 3.00658, 3.02037, 1.00186
2.0496, 1.97893, 0.993219, 6.96053
2.97304, 3.99666, 5.96413, 2.98871
2.99224, 1.96087, 0.982551, 3.94579
3.95904, 3.98192, 2.9858, 0.000000
1.97752, 1.95223, 3.95711, 0.000000
2.97991, 1.9972, 4.02375, 3.98366
1.95105, 1.99073, 4.94433, 3.04316
3.01861, 4.95743, 3.02075, 0.982887
1.98748, 5.94173, 2.96401, 4.92088
1.00146, 1.99202, 8.00299, 1.98186
3.97487, 2.97816, 8.97198, 2.01282
4.8986, 7.24175, 9.0269, 3.97328
3.00609, 7.98423, 8.98339, 6.96737
11.2872, 10.0056, 12.9961, 9.97387
10.1055, 16.9141, 8.96904, 10.9169
13.8787, 6.95056, 18.0043, 12.0165
16.9388, 18.8966, 23.8594, 14.9495
19.9419, 25.7426, 20.9119, 24.0197
27.7579, 33.7876, 34.0563, 28.1384
30.9977, 33.9256, 34.9033, 31.805
52.7188, 42.778, 44.9016, 52.1492
53.261, 72.1651, 80.7944, 87.8428
123.201, 164.378, 152.567, 191.755
533.208, 751.02, 1102.76, 1680.93
18664.5, 46306.3, 71919.4, 75579.7
41842.2, 31899, 22476.2, 15739.2
308.385, 210.605, 134.901, 143.671
75.3122, 61.0928, 44.984, 42.1983
19.8203, 35.3973, 32.2327, 27.2417
17.9645, 25.267, 16.9121, 20.9072
17.2741, 10.0702, 13.0263, 10.9926
7.06009, 11.1514, 9.93675, 8.96681
5.95526, 7.01508, 7.95571, 7.03745
10.9669, 6.89881, 3.97118, 13.9171
6.98791, 7.92901, 9.07572, 5.02813
5.96095, 3.93016, 8.12096, 7.96336
5.9721, 4.02783, 5.98214, 2.95187
5.00521, 3.01069, 4.97067, 9.95287
2.99469, 4.01201, 1.00552, 4.9819
4.96548, 1.0085, 3.97227, 1.98533
8.03033, 3.9296, 2.0137, 2.98001
5.99272, 4.29709, 3.98015, 1.99642
3.01177, 7.04884, 4.98523, 2.99605
4.95137, 3.01333, 3.99306, 1.98979
2.01271, 2.9647, 1.00394, 2.96898
3.96288, 3.95817, 5.94722, 2.00639
0.000000, 5.99749, 1.96128, 3.98317
5.02026, 3.01554, 3.00418, 2.99275
5.95507, 3.96319, 0.000000, 1.98838
4.93476, 0.982887, 1.96646, 3.96794
1.96887, 2.005, 1.98478, 4.03842
0.978662, 1.00109, 3.99711, 3.00183
2.99118, 3.95075, 3.95634, 1.95392
4.03496, 0.993326, 0.986473, 1.03092
2.03125, 0.989807, 2.97361, 2.96059
4.98995, 1.99843, 2.98977, 1.02638
4.28592, 5.94013, 2.04194, 1.02532
1.97822, 1.0018, 1.9817, 2.97547
2.99827, 2.00561, 2.98663, 3.01907
2.98081, 0.000000, 3.95082, 2.00546
0.000000, 3.01922, 1.95859, 2.00706
0.995891, 1.97966, 3.93278, 2.00001
0.989297, 2.00355, 2.96358, 3.05736
3.9898, 1.95001, 2.97135, 2.99992
2.02189, 0.984319, 0.996403, 3.95795
2.99736, 1.96525, 1.00253, 0.978134
0.98341, 2.98352, 0.973593, 1.98577
0.000000, 4.03729, 1.99284, 1.95106
0.971, 1.00377, 2.99694, 0.989318
2.00835, 0.000000, 1.983, 4.96719
2.02124, 3.00639, 0.000000, 2.97133
1.99657, 1.96126, 0.993375, 0.967456
0.000000, 2.97211, 1.9857, 1.02963
2.0153, 2.00978, 0.982542, 3.03589
1.99676, 1.99765, 3.97612, 1.99386
2.95996, 2.00439, 1.99941, 2.00674
0.000000, 2.97961, 1.01996, 1.0018
0.000000, 2.97181, 1.99565, 0.998446
1.0092, 0.000000, 0.000000, 1.99411
1.00278, 2.98361, 0.000000, 0.000000
1.00217, 1.98685, 1.98755, 2.98134
0.000000, 0.000000, 1.00139, 0.000000
2.00074, 1.9842, 1.01147, 2.94849
0.974622, 2.99854, 0.000000, 1.96191
3.97476, 2.00785, 1.992, 0.985436
0.999482, 0.985137, 1.98822, 1.00377
2.97919, 0.000000, 1.01164, 2.00906
1.99026, 0.000000, 0.000000, 1.00455
1.97687, 1.00486, 1.96309, 4.00505
2.98315, 0.000000, 0.993375, 0.978134
1.00488, 1.9838, 3.00586, 3.0133
0.000000, 0.997464, 1.00259, 2.03126
0.990254, 0.000000, 2.01891, 0.000000
0.975459, 1.00451, 0.992146, 2.00476
0.996545, 1.00073, 0.97156, 2.959
2.95825, 0.000000, 0.000000, 1.0284
1.94852, 0.999618, 0.992571, 1.97767
2.00047, 0.000000, 0.000000, 1.9934
3.0058, 1.97217, 0.952999, 0.985206
0.997827, 1.98628, 0.000000, 0.997665
1.99974, 4.02885, 1.99042, 0.000000
2.01683, 3.99634, 0.982377, 4.02035
1.99094, 1.01901, 1.9882, 2.95859
3.01208, 3.04794, 7.89047, 0.982681
0.979151, 1.95424, 2.98774, 1.00137
4.0344, 4.00094, 1.97542, 3.00254
1.02077, 2.00254, 1.95997, 0.988022
1.98652, 1.9682, 0.000000, 4.99526
1.97707, 1.99788, 1.0054, 3.04353
3.00587, 1.98993, 2.02104, 1.03082
2.00619, 0.968574, 1.00517, 2.00526
0.990903, 4.00227, 5.01009, 0.987012
0.000000, 0.982243, 0.985519, 1.98762
0.982887, 1.03007, 0.000000, 0.000000
2.986, 0.000000, 1.98652, 1.00186
3.00135, 1.01495, 2.00521, 2.9743
2.99999, 0.000000, 0.000000, 1.95939
2.97413, 0.996403, 3.01606, 0.000000
1.96661, 0.995223, 0.95315, 0.000000
0.000000, 1.99651, 0.000000, 3.01136
2.02349, 0.000000, 1.9695, 2.00186
1.95739, 2.02959, 1.00896, 0.999002
1.00162, 3.93294, 4.90869, 3.04025
1.99664, 0.978951, 1.96937, 1.98781
3.02787, 3.98981, 0.989299, 0.000000
0.000000, 1.9708, 1.97566, 1.0054
3.00074, 1.02855, 2.97676, 0.994782
0.995529, 1.00387, 1.98348, 1.00168
3.99056, 1.99149, 3.95074, 2.96835
2.9708, 0.000000, 0.987012, 0.000000
0.000000, 2.98952, 1.98153, 4.91642
0.987896, 1.98467, 1.98025, 0.000000
1.97879, 0.994333, 1.96773, 0.967456
2.00705, 3.03227, 1.99379, 2.00534
1.9742, 2.97821, 2.96234, 0.000000
1.95918, 3.98282, 0.983713, 1.03117
0.000000, 0.994333, 1.99878, 1.96723
0.986584, 2.96895, 3.94438, 1.97384
1.00394, 1.98551, 3.03004, 0.968993
1.96178, 3.98239, 0.000000, 4.0393
0.000000, 2.00991, 1.00007, 0.000000
1.97123, 0.995985, 2.01252, 1.98112
0.984784, 3.968, 4.96154, 0.000000
3.01178, 2.00996, 4.92084, 0.996136
0.981196, 0.999002, 0.000000, 1.97653
1.98503, 0.994484, 0.000000, 0.998124
0.999737, 2.0073, 2.01474, 4.03629
0.000000, 1.98614, 0.991414, 2.97196
1.97196, 0.000000, 3.95715, 0.000000
1.99496, 1.01164, 0.000000, 3.95971
1.02261, 0.992146, 1.97873, 0.982377
1.00024, 0.000000, 0.977426, 0.000000
2.97638, 1.98998, 0.980313, 5.05145
0.000000, 1.95951, 1.99319, 1.98242
3.01202, 1.97266, 0.989522, 4.13584
3.98105, 1.00377, 4.96561, 1.00189
0.000000, 2.9922, 0.000000, 2.95247
3.95879, 1.97564, 0.965791, 0.96292
1.95402, 0.000000, 2.89345, 0.991969
0.000000, 1.96136, 0.000000, 2.02022
0.990026, 0.000000, 0.000000, 4.00542
2.96464, 1.98437, 0.99354, 2.00803
1.97881, 1.00259, 1.00139, 2.99304
2.97937, 1.01098, 1.1415, 3.03094
0.993219, 0.982681, 0.98897, 0.976382
2.9772, 1.0032, 1.9741, 1.00084
0.99925, 0.996545, 0.000000, 2.0007
1.98547, 1.96868, 1.00191, 0.000000
2.99404, 1.97828, 1.0199, 4.00454
2.00884, 0.992417, 2.97785, 0.000000
2.00269, 0.990386, 0.983713, 1.00517
2.02563, 3.99287, 3.01546, 1.97788
0.989021, 1.98309, 0.983593, 0.952999
0.977629, 5.95444, 1.9654, 1.00552
1.97008, 3.00381, 2.00692, 1.9873
1.00168, 1.98293, 3.02144, 1.96658
1.00138, 1.01996, 1.96022, 2.9785
0.991819, 0.000000, 3.95625, 2.9784
2.95879, 3.00801, 0.000000, 0.000000
4.02636, 1.99639, 5.00181, 3.02621
5.96411, 4.03342, 5.98648, 0.978339
11.8704, 6.8691, 10.0152, 6.93113
8.99984, 3.98143, 10.9756, 6.01014
6.01606, 5.97325, 3.0219, 5.95808
0.978134, 7.08536, 3.99612, 1.0005
5.97291, 4.02518, 0.995516, 0.985519
3.9077, 1.99298, 2.96145, 2.99848
0.995341, 3.01787, 0.996102, 3.00918
2.00615, 2.04833, 1.98982, 1.99212
2.97804, 0.98649, 0.000000, 2.98844
1.96481, 0.000000, 1.99324, 0.991819
0.970327, 4.02298, 3.96732, 1.99368
0.000000, 1.00085, 1.97728, 0.000000
0.000000, 0.968574, 2.99287, 0.000000
3.01379, 0.980385, 2.95425, 1.99249
0.987345, 2.96314, 0.997827, 3.94559
1.02077, 1.98672, 1.99421, 1.99261
2.01272, 1.02997, 1.00712, 1.01777
0.000000, 1.00076, 1.02936, 1.00258
2.02002, 1.9777, 0.000000, 2.00583
1.98552, 4.97487, 3.00185, 2.99772
5.98822, 0.990101, 3.98961, 0.000000
4.02664, 1.98288, 1.00776, 3.00317
3.04031, 1.97656, 1.03032, 1.01996
0.977629, 0.995843, 2.02016, 0.994484
0.000000, 1.00716, 1.98794, 2.94411
2.00042, 1.95952, 0.998276, 2.00313
0.000000, 5.96392, 2.00591, 1.9818
2.00187, 2.01268, 0.995516, 6.03888
2.97815, 0.000000, 2.98499, 2.01812
2.00354, 2.979, 3.02236, 4.95489
2.97691, 2.94734, 1.99552, 0.000000
1.9836, 1.99753, 0.000000, 3.96265
0.000000, 0.991993, 0.989461, 0.000000
0.990516, 2.00092, 0.000000, 1.94474
2.98643, 0.000000, 2.97296, 0.970123
1.00085, 0.000000, 0.972011, 1.99201
3.97169, 1.97605, 1.0085, 2.99219
0.987345, 2.97576, 2.96976, 1.00532
1.98486, 0.000000, 1.01996, 0.000000
5.00946, 1.97785, 1.98613, 0.000000
0.985137, 1.98968, 2.97191, 1.00073
1.99882, 1.9617, 2.00621, 2.0266
0.997966, 1.95709, 2.97527, 1.98923
1.96552, 0.979151, 2.98986, 0.000000
1.99973, 0.000000, 1.96679, 2.96546
0.997827, 0.982681, 4.01643, 0.000000
2.9295, 2.02099, 3.97968, 0.978134
2.98811, 1.99593, 0.989522, 2.00728
3.92409, 1.98011, 0.994251, 0.991596
2.9943, 3.02588, 2.95529, 1.98169
0.000000, 3.99646, 2.97523, 1.99942
3.01108, 2.01098, 2.98011, 1.99778
0.997665, 2.97893, 0.952999, 3.00247
0.981625, 1.02997, 2.01019, 0.000000
0.999618, 4.00322, 0.975459, 1.01009
0.985436, 1.99592, 0.99191, 3.98835
0.994792, 3.93487, 5.03318, 0.986875
4.01402, 2.99789, 0.991218, 1.01091
5.8964, 2.97883, 1.00449, 1.98384
1.00024, 4.00539, 3.933, 4.95272
3.01995, 3.02499, 3.91412, 2.002
2.01198, 0.000000, 0.981773, 1.03093
1.98093, 0.985519, 1.97075, 0.975575
2.02821, 1.01013, 0.983508, 2.98628
0.998874, 0.990026, 2.02241, 1.99375
1.98819, 0.000000, 0.986703, 0.000000
2.99317, 2.97067, 2.02863, 3.99844
3.00572, 0.000000, 1.93781, 4.97881
1.01996, 1.97852, 4.96261, 3.94613
0.994179, 0.000000, 3.00057, 0.000000
0.990698, 0.000000, 0.995864, 2.96471
0.000000, 1.9909, 0.000000, 0.977629
2.97195, 3.98828, 0.000000, 1.98502
0.978235, 1.9819, 4.04277, 0.99925
1.99258, 0.000000, 2.01211, 1.99464
0.000000, 0.000000, 2.99553, 0.995843
4.0233, 1.00658, 0.000000, 1.99754
2.9663, 0.989318, 5.00623, 2.01799
1.00236, 0.000000, 0.999618, 2.01978
0.986875, 0.960941, 2.00769, 3.93499
0.980244, 2.90417, 0.000000, 1.9825
1.95603, 1.0085, 4.99814, 2.98165
0.976638, 2.00536, 3.01358, 3.92022
1.01495, 3.99249, 0.989308, 1.97771
1.99487, 1.95523, 0.000000, 4.98863
0.000000, 2.00898, 1.9882, 0.000000
0.997827, 0.000000, 3.00174, 0.000000
0.000000, 0.000000, 2.97294, 1.9762
3.97088, 0.982681, 1.98437, 5.002
3.95973, 2.00871, 1.99395, 1.05069
1.14147, 1.98595, 0.000000, 1.00538
4.93148, 1.02358, 0.983888, 1.00024
1.97025, 4.01246, 1.00022, 1.00626
1.00139, 0.000000, 0.981991, 1.99285
1.99209, 2.02936, 0.989273, 0.970123
2.00717, 2.97397, 2.97644, 1.97439
0.998965, 0.000000, 1.00436, 2.97242
0.000000, 0.000000, 1.99199, 2.001
0.991785, 0.972822, 0.000000, 1.00394
1.00043, 2.97071, 0.994035, 4.01211
1.95941, 0.982681, 1.98378, 2.01845
5.00391, 1.00259, 1.9502, 0.000000
2.02645, 0.000000, 0.993219, 5.09845
0.997665, 1.97944, 1.98147, 1.99525
0.967456, 0.977426, 1.97615, 0.993764
1.9976, 1.97589, 0.978134, 2.03469
2.00673, 1.99126, 0.992769, 1.00007
0.000000, 4.93572, 0.998468, 2.96106
3.03095, 1.00287, 1.00085, 3.92936
0.952999, 1.97657, 0.996604, 0.000000
0.000000, 0.986465, 4.98706, 0.000000
3.97175, 1.99203, 0.996403, 1.98683
0.989105, 1.97118, 3.9815, 3.93255
2.93739, 1.96566, 2.96816, 0.990361
2.99454, 1.01791, 0.995828, 2.98832
4.01561, 0.000000, 0.000000, 0.000000
0.995347, 0.999482, 2.99257, 0.983874
4.99643, 0.000000, 2.97665, 0.997652
2.98921, 2.01788, 2.97316, 0.979422
1.99276, 1.0018, 2.99228, 0.000000
2.95643, 1.9745, 2.93676, 0.991969
3.99334, 1.99286, 3.93697, 2.9694
2.0004, 0.000000, 1.00451, 1.99106
1.00139, 3.02772, 0.000000, 2.00596
1.00015, 1.97289, 0.000000, 0.000000
1.97433, 4.98381, 1.97341, 1.99806
5.03416, 0.985896, 2.99231, 1.0114
3.01969, 0.000000, 3.98667, 1.99009
0.000000, 0.000000, 1.98563, 1.96068
1.9878, 1.98524, 0.99354, 1.00982
2.9747, 1.99853, 0.992964, 4.98166
2.02151, 0.987035, 0.969094, 1.9907
3.9226, 0.000000, 0.988942, 3.9979
3.0352, 0.000000, 2.97902, 0.994689
0.000000, 3.00173, 0.999002, 0.000000
1.0009, 2.96391, 2.0053, 0.998328
0.000000, 3.942, 1.98877, 0.998406
0.985137, 0.979395, 1.00162, 0.97911
3.99009, 5.0154, 1.98891, 0.996403
1.99342, 1.96137, 0.992769, 1.0356
2.99881, 2.97361, 0.974622, 0.000000
0.97911, 1.0018, 5.98112, 2.02123
0.000000, 0.000000, 1.95751, 1.98939
1.01015, 0.988969, 3.96095, 4.01562
1.98068, 0.985255, 0.000000, 5.93089
4.00958, 1.98473, 3.02051, 3.01742
2.00878, 0.993866, 4.94966, 0.000000
0.000000, 0.993959, 1.97936, 2.01221
0.000000, 2.96463, 0.999002, 1.97505
1.00538, 2.96544, 1.00329, 3.99333
0.988942, 0.000000, 0.000000, 2.01126
1.97611, 0.000000, 0.991943, 0.999444
4.94522, 2.97009, 0.000000, 4.01871
0.983989, 1.95057, 1.96398, 3.97244
2.99639, 1.99293, 2.99783, 1.9902
4.91786, 1.98355, 3.98049, 3.95585
2.98203, 3.93918, 2.98486, 4.0025
1.98745, 2.96019, 1.98597, 2.98033
3.95968, 0.000000, 0.995525, 2.02868
1.9759, 2.95762, 0.952999, 1.99103
4.01836, 3.99345, 1.96669, 0.998297
1.96795, 2.00403, 1.99384, 1.99661
3.0514, 2.96279, 1.97839, 1.9891
0.965385, 3.95441, 0.000000, 1.99097
2.00711, 0.984665, 4.037, 1.9953
0.000000, 0.986179, 1.01901, 2.997
1.03082, 2.00273, 2.017, 2.966
0.995699, 2.01909, 0.000000, 1.98417
0.992769, 3.01144, 0.96292, 4.02341
1.98834, 0.000000, 6.00559, 1.97769
1.02358, 0.994889, 0.99925, 4.01765
3.00092, 1.00033, 2.9739, 3.96972
3.97049, 2.00584, 1.98714, 2.96025
2.04784, 3.03354, 0.000000, 4.99891
1.97994, 2.94072, 1.99236, 2.00528
2.98433, 0.990254, 0.981658, 1.99324
2.97898, 0.988009, 0.000000, 1.99688
1.97889, 2.9681, 1.99351, 1.99767
1.99916, 0.979389, 0.985111, 1.9989
0.000000, 2.95863, 3.99977, 1.99066
0.984412, 1.00278, 0.000000, 4.97544
0.000000, 0.000000, 0.000000, 2.98067
1.00007, 2.9852, 2.9933, 3.00776
0.993375, 0.000000, 3.96817, 3.96461
4.00338, 3.00298, 2.02831, 0.997718
0.000000, 0.970327, 3.04372, 2.00412
1.00776, 3.94472, 1.98581, 1.97931
0.000000, 0.973593, 3.01522, 2.98639
2.98783, 1.00479, 2.00397, 0.978134
1.98457, 0.970123, 0.000000, 0.000000
2.02339, 3.94281, 0.000000, 7.03698
2.97276, 0.000000, 2.97041, 3.98698
1.97829, 1.0054, 6.96859, 2.00427
3.007, 2.01695, 2.02742, 1.00253
1.00517, 2.98483, 3.97199, 1.00517
2.99402, 2.96301, 3.95067, 0.000000
3.99227, 0.000000, 1.99809, 0.000000
1.00109, 0.988589, 2.98696, 0.000000
3.0186, 1.98182, 2.95828, 2.99758
2.02996, 1.01173, 1.0005, 1.01865
1.98409, 0.000000, 4.03782, 2.02864
1.0166, 0.990386, 3.9615, 2.97279
2.98482, 1.96777, 0.000000, 1.0092
1.00099, 1.98985, 1.01224, 2.96994
0.965791, 4.97209, 2.94874, 1.97348
3.98755, 0.972822, 2.03979, 2.00287
2.96382, 1.99352, 0.993921, 1.9872
5.94938, 0.000000, 1.99355, 1.01996
1.04701, 5.93995, 3.00651, 0.989869
2.95059, 0.000000, 0.993738, 2.01757
1.9913, 0.988463, 1.02859, 0.998659
1.99078, 1.97427, 1.96825, 0.000000
0.000000, 3.96365, 1.00033, 1.96556
4.98066, 0.000000, 0.000000, 5.00226
1.99513, 1.98172, 2.96318, 1.00539
0.994792, 1.9826, 3.99801, 2.98446
3.97162, 0.000000, 0.999482, 2.00401
0.000000, 0.998131, 3.00506, 0.995168
0.000000, 3.96438, 0.980244, 1.99248
4.00033, 2.95406, 2.00698, 0.000000
2.97671, 1.98548, 2.96256, 1.99156
2.97575, 2.99359, 3.00806, 4.92292
3.96046, 2.01195, 0.993219, 2.0053
2.98811, 2.00145, 2.00057, 5.94186
4.9748, 1.99571, 0.991943, 3.96861
0.95315, 2.98142, 0.980244, 1.00127
3.00561, 5.96666, 1.99587, 3.98447
2.98336, 0.991414, 4.19327, 1.98903
1.97551, 4.94494, 3.97324, 2.96654
1.98229, 6.02916, 0.987345, 1.99992
1.99796, 0.995843, 2.95678, 2.98285
0.985709, 0.997843, 3.0274, 1.99338
0.983508, 0.986465, 5.96115, 0.98897
0.000000, 1.99633, 3.97627, 2.97623
2.97779, 0.988275, 2.99841, 1.96993
2.02796, 3.042, 1.99321, 1.94129
3.96148, 0.989105, 2.94422, 4.93274
1.00886, 5.97966, 2.96036, 4.02453
1.98451, 4.94295, 1.99513, 2.99798
2.00341, 6.99892, 4.97592, 0.980244
1.96674, 1.98626, 2.99118, 1.98344
2.9584, 3.99648, 1.99562, 1.97585
0.97911, 5.95005, 1.00387, 3.00418
3.00149, 1.00922, 1.99749, 2.99684
4.93839, 1.9748, 2.00222, 2.96633
7.91893, 3.12388, 1.99602, 0.000000
5.94373, 2.98499, 5.974, 4.97708
1.97348, 0.000000, 1.00567, 1.98962
1.93338, 1.98971, 5.91938, 2.98245
3.95872, 2.95207, 3.03349, 4.98846
2.93086, 0.000000, 0.987035, 3.96287
3.96855, 4.01707, 3.99393, 3.95914
4.01099, 3.9908, 7.93588, 3.97692
2.99246, 3.00563, 2.93161, 8.00466
4.03447, 5.00966, 4.9973, 7.91627
4.95911, 3.00464, 7.01629, 10.0318
5.02836, 2.98707, 6.00428, 8.1256
3.05238, 5.9819, 4.95757, 4.98318
6.98787, 8.95381, 2.9948, 2.97035
5.00287, 0.997665, 4.99517, 6.93251
6.96154, 4.99899, 4.97418, 1.97198
4.92876, 6.9505, 6.93559, 7.95446
8.30397, 7.00077, 10.958, 8.96263
9.93104, 5.9675, 10.8604, 3.00985
11.9411, 14.1148, 11.9059, 14.8923
9.06854, 12.0681, 8.99286, 14.0826
7.95066, 16.9057, 11.9914, 10.9827
21.1533, 19.8802, 20.1161, 15.2305
16.9343, 26.8899, 24.8681, 17.8681
18.9084, 29.0953, 26.9652, 21.5063
41.2079, 38.9919, 41.6963, 39.8831
46.9446, 33.0887, 47.7751, 50.9765
66.0928, 64.2425, 56.2162, 90.8039
137.266, 129.813, 157.074, 213.98
688.298, 834.871, 1118.98, 1569.38
7980.88, 8898.67, 8877.64, 6683.06
2746.85, 1336.02, 618.631, 323.507
93.9455, 66.6679, 59.9531, 57.2909
32.0981, 26.963, 33.8381, 30.1752
30.7571, 22.9379, 23.0463, 26.2482
23.886, 14.9258, 23.9423, 23.9576
10.0696, 10.0135, 13.8936, 21.1535
10.9481, 10.2589, 10.9436, 14.9353
6.04341, 11.9649, 8.93707, 12.9278
11.9038, 13.9101, 12.9796, 6.00477
2.99453, 8.94716, 8.23159, 4.02217
5.96182, 12.9121, 9.00071, 8.90857
4.97432, 11.9777, 3.00906, 6.03814
5.00676, 6.96622, 8.92274, 6.01147
2.98812, 5.9612, 7.91712, 4.96439
7.90446, 1.98991, 7.96008, 8.31112
6.98209, 1.96389, 3.95563, 3.02111
9.98353, 8.08511, 5.98723, 5.12546
1.98886, 5.01397, 2.96703, 2.9832
5.96507, 4.98178, 4.97782, 1.00278
6.94701, 9.00851, 5.07196, 1.97689
3.99385, 5.93135, 6.95644, 2.01757
1.00258, 4.95174, 2.99507, 5.00906
2.99339, 6.93658, 4.99677, 4.95666
1.9828, 6.97137, 3.94699, 3.97814
3.94628, 2.96822, 3.9574, 6.97568
4.97478, 4.00848, 4.97304, 6.96711
2.99261, 3.96477, 4.01143, 3.95692
4.05182, 2.00635, 4.01999, 9.91545
4.96644, 2.03138, 4.99823, 6.91586
3.99443, 5.95994, 2.98619, 5.95868
3.98385, 3.05227, 3.92027, 1.94884
4.89868, 0.97156, 2.95471, 2.96289
4.9498, 3.95447, 6.01973, 1.98777
3.91927, 2.96513, 5.96836, 0.000000
4.98087, 1.99095, 4.99495, 0.000000
0.991785, 3.01039, 0.000000, 2.03678
4.00216, 1.98382, 5.9381, 2.99215
0.000000, 0.000000, 3.9216, 4.95748
3.01506, 4.98915, 2.99801, 2.02142
3.00034, 3.95898, 2.00951, 0.000000
3.95011, 3.00902, 2.01507, 1.97767
2.97748, 4.95594, 1.02261, 6.01353
1.95094, 2.00059, 1.00368, 1.00146
6.01855, 0.978951, 1.02077, 1.98381
1.99531, 1.99902, 0.980244, 0.995699
2.9699, 0.995634, 1.00716, 2.0005
4.9438, 3.97192, 1.99082, 3.95269
3.94347, 1.99795, 3.93608, 1.98277
0.976638, 2.98248, 1.00539, 0.998356
3.01371, 4.94732, 1.97063, 3.96487
2.95232, 0.000000, 2.96837, 0.988983
2.98786, 3.97334, 0.980385, 3.00173
0.978235, 1.99507, 1.97775, 3.94698
0.979422, 6.02789, 2.98175, 4.94233
6.96572, 5.00067, 1.98502, 1.99283
1.97414, 1.01364, 0.994251, 1.99628
3.99652, 0.994792, 1.92386, 3.00346
0.000000, 1.01445, 6.00172, 0.991785
1.96957, 2.98545, 3.01969, 4.03178
1.00186, 3.00358, 2.98268, 0.985318
2.99831, 3.02785, 4.00776, 2.96631
2.96836, 0.000000, 0.988569, 2.94557
0.000000, 3.99403, 0.000000, 5.042
3.93928, 1.93958, 2.01913, 2.99148
5.94782, 3.02979, 1.00658, 2.98815
0.000000, 1.00076, 1.98141, 1.96476
3.95168, 0.997875, 1.01715, 5.0268
3.00053, 1.97305, 4.99021, 5.0454
0.978134, 4.9443, 5.00129, 2.02561
5.91035, 3.14012, 3.01564, 1.99301
0.000000, 2.96334, 1.96485, 0.973593
3.02889, 1.02997, 1.96367, 2.96128
4.96949, 3.01005, 1.99594, 3.01554
3.97729, 0.983919, 2.99335, 3.0101
0.997301, 1.9586, 1.00085, 0.992769
2.02135, 3.00034, 7.89875, 1.98851
3.00193, 1.00109, 1.97983, 6.12608
4.95416, 2.00655, 0.000000, 3.95226
1.9937, 1.01487, 5.02576, 3.93047
0.988022, 0.983508, 4.07399, 2.97271
2.99355, 0.000000, 1.01865, 0.987344
1.01091, 0.988589, 3.02714, 1.98793
1.01709, 3.94771, 1.96924, 2.97928
1.9674, 2.01037, 5.91521, 1.98947
1.97634, 1.9745, 4.32953, 1.98693
2.00287, 2.96662, 6.0398, 1.97252
0.970123, 3.96318, 0.986584, 1.97754
1.99977, 1.9864, 0.996694, 0.000000
3.95074, 1.9588, 3.95388, 2.98295
0.996774, 0.991124, 0.000000, 0.000000
7.00664, 0.000000, 4.93069, 3.97226
0.993669, 2.99759, 0.990701, 2.00512
4.97937, 1.0092, 0.981647, 0.000000
2.94918, 0.980006, 1.97253, 0.000000
3.01922, 0.992837, 2.01286, 3.00596
1.96788, 0.000000, 4.01375, 4.0238
1.01709, 2.98823, 2.96765, 1.95717
3.95388, 3.99197, 2.00301, 1.99324
1.98264, 2.98177, 1.98941, 3.00599
2.96365, 1.97289, 2.96527, 3.98939
1.99246, 1.98702, 1.95189, 2.97078
0.000000, 0.996545, 1.00076, 3.03746
0.988942, 2.97064, 1.98062, 2.97
5.97475, 2.04692, 3.94383, 3.95069
2.04134, 1.97163, 1.98272, 0.000000
2.00607, 4.01901, 1.01009, 5.99747
4.06182, 2.96372, 3.95958, 1.97122
3.98165, 2.95569, 1.99556, 2.98251
1.99232, 2.97886, 4.02541, 0.986875
2.95087, 0.000000, 2.98801, 3.00866
2.98208, 2.00246, 1.97942, 1.98697
3.02164, 0.988163, 2.94571, 0.000000
0.000000, 1.9848, 0.000000, 8.93852
3.96397, 0.984537, 5.92598, 1.99564
1.96069, 1.01052, 3.95173, 0.987345
1.99077, 0.95315, 0.952999, 0.000000
0.000000, 1.01709, 2.94279, 2.98812
1.0085, 4.9839, 0.000000, 3.93321
1.01901, 2.98374, 0.987345, 3.02117
0.000000, 1.98127, 3.0422, 0.976638
4.99446, 2.01281, 3.00533, 0.000000
1.97589, 0.000000, 2.97041, 0.998276
2.00302, 0.993782, 0.978134, 0.970123
0.000000, 0.997094, 2.98561, 2.9653
0.977426, 3.95353, 2.01388, 0.998603
1.99095, 2.952, 2.01382, 5.037
3.13018, 0.000000, 3.97567, 4.012
4.0237, 1.99906, 0.000000, 4.98075
4.98261, 1.99856, 2.99954, 5.94462
2.91843, 4.95846, 0.000000, 1.97032
2.99616, 0.978662, 0.000000, 0.993514
1.97593, 2.94467, 3.02052, 2.9706
2.97801, 1.99761, 1.98157, 0.991793
2.03341, 3.95665, 2.95584, 5.92519
0.9942, 1.97557, 2.00161, 3.01681
2.93475, 6.9815, 4.9821, 3.04287
3.95338, 5.95652, 2.98739, 2.02991
0.000000, 0.99191, 4.96193, 5.99133
1.99131, 2.0278, 2.98544, 1.98265
1.97558, 0.000000, 3.01755, 1.98659
4.97257, 1.98585, 3.95526, 4.0018
1.04108, 3.00746, 2.001, 3.98803
1.98647, 0.971, 0.999261, 1.02859
3.00485, 4.98374, 1.02243, 0.000000
2.02105, 0.999008, 0.000000, 1.99346
1.98677, 6.92224, 2.97073, 2.96219
5.98984, 0.979422, 3.01383, 1.97961
1.01228, 0.999618, 2.99192, 2.04713
5.94284, 4.00253, 1.99295, 0.000000
0.96292, 1.97232, 0.981773, 2.95802
2.99753, 4.96435, 3.00025, 0.000000
1.98562, 3.00192, 0.98633, 3.95192
2.98738, 6.08005, 3.93804, 5.94303
3.99646, 2.01473, 0.000000, 5.88242
4.97148, 0.965385, 0.988275, 2.96419
0.000000, 0.971, 1.96105, 1.96112
3.01294, 2.97494, 0.995516, 0.983989
2.97975, 2.97873, 2.00908, 0.000000
2.9611, 1.96901, 1.95133, 0.987768
1.98252, 1.98026, 0.988942, 2.95449
2.93039, 2.97625, 1.01098, 2.99539
1.99985, 4.94552, 2.99791, 1.01585
1.98381, 1.98445, 3.96095, 1.98749
2.99949, 3.00118, 2.95503, 0.974622
5.95982, 2.96588, 1.99398, 0.000000
1.98721, 0.989522, 2.95549, 1.99449
0.000000, 0.000000, 0.990903, 2.98657
0.000000, 3.96973, 1.0092, 0.971
4.01177, 3.98824, 2.96632, 2.98056
0.999809, 6.00312, 1.00099, 2.97823
2.96889, 0.000000, 0.985608, 2.01883
1.01493, 0.960941, 1.96913, 1.99982
1.0056, 2.96662, 2.01763, 2.97469
0.998328, 3.9353, 1.96965, 0.000000
1.97963, 0.000000, 0.998924, 0.952999
1.99377, 2.9824, 2.97624, 0.000000
2.00956, 0.984348, 3.93256, 0.99354
2.0061, 1.97576, 1.95737, 0.000000
2.97531, 3.024, 2.91284, 3.98853
3.97925, 0.000000, 0.000000, 0.000000
1.00259, 0.000000, 1.98824, 1.96494
0.998328, 0.983989, 3.99328, 5.92222
2.94073, 4.01042, 2.01025, 5.0213
3.98262, 0.000000, 5.02563, 1.97223
0.990244, 0.952999, 3.96583, 2.95898
2.97839, 3.01442, 2.00923, 1.00329
3.03268, 2.00953, 1.0018, 0.981625
2.98817, 2.03369, 3.97457, 2.01712
1.97643, 2.97774, 3.98103, 2.0028
0.99354, 2.95385, 5.00085, 1.01052
3.98192, 1.01936, 1.98147, 4.97084
1.00596, 2.97002, 1.99541, 3.9789
1.97298, 3.97994, 2.97524, 3.95096
0.990386, 0.998924, 3.95517, 4.96543
5.06308, 2.00083, 4.98285, 6.96585
1.00658, 3.99559, 4.99391, 5.94296
3.96444, 4.96591, 4.99592, 4.95866
1.01606, 2.99535, 1.99617, 1.974
0.991819, 1.02077, 0.000000, 0.968199
2.9908, 1.97681, 1.98511, 2.02129
3.01351, 0.987012, 0.000000, 0.997464
3.94546, 0.972822, 3.97128, 0.989402
1.97856, 2.98015, 0.984784, 0.994484
2.0075, 6.96525, 3.03089, 2.97097
4.95979, 0.000000, 3.9819, 1.96584
4.01702, 0.997665, 0.000000, 2.99845
1.98765, 2.01075, 4.97571, 3.00442
0.95315, 0.975459, 2.9624, 1.01791
0.97107, 1.97025, 3.01315, 0.992769
2.0096, 0.996041, 2.99928, 1.01709
0.988733, 2.97136, 0.994707, 1.01098
3.00116, 2.94527, 6.95922, 0.000000
4.99702, 3.01977, 1.99647, 4.00214
3.01866, 4.14038, 3.98478, 0.000000
0.000000, 1.99762, 4.02689, 3.98525
2.9805, 1.97485, 1.97722, 3.98035
5.94642, 3.9574, 1.98775, 1.97845
0.984665, 2.99462, 2.99343, 2.00209
9.15843, 2.99096, 2.98138, 0.984872
2.98752, 4.93045, 3.02296, 0.000000
0.000000, 1.98425, 2.99307, 0.000000
2.98229, 2.98053, 0.998446, 1.00146
0.000000, 3.01025, 1.00811, 1.96884
1.03375, 3.99409, 5.29067, 2.95565
0.993375, 1.99704, 0.980244, 4.99072
4.0197, 0.000000, 1.96751, 1.01086
1.00122, 0.981639, 0.000000, 1.00024
2.97309, 4.96602, 0.000000, 1.03082
1.94879, 0.000000, 1.00811, 0.98867
1.95114, 0.969502, 2.00193, 0.978134
1.98932, 2.13769, 2.04342, 2.9878
0.000000, 2.00804, 1.97025, 1.93671
0.000000, 3.14374, 3.03425, 2.97155
3.01759, 0.986126, 0.98995, 1.96136
4.0633, 2.97245, 2.97542, 0.000000
0.000000, 2.96797, 2.97316, 3.02972
3.99979, 0.988455, 2.00755, 2.01354
2.01778, 1.96343, 4.94851, 1.99234
0.000000, 1.98746, 3.97054, 5.9696
1.99586, 0.000000, 1.98483, 1.00033
0.000000, 2.96699, 2.00484, 0.999482
3.02359, 5.96065, 2.99109, 2.94981
4.96317, 3.03105, 5.05165, 2.99212
4.98196, 1.98361, 0.988275, 1.00379
3.98296, 4.96924, 3.97519, 2.99195
2.975, 0.986584, 4.02892, 1.98848
3.96281, 3.91877, 2.93494, 0.000000
1.00436, 0.998446, 1.00395, 3.97792
0.984966, 1.94304, 1.99876, 0.000000
3.05211, 2.97962, 1.99454, 1.98059
0.000000, 2.9992, 1.9986, 0.979151
1.00005, 1.99696, 0.994179, 2.99894
1.98367, 0.000000, 2.97156, 0.000000
2.98019, 0.000000, 3.00477, 2.98985
1.9971, 1.00207, 2.96109, 3.05721
4.96262, 0.000000, 0.000000, 2.93839
4.016, 0.986179, 1.95856, 0.98633
3.96264, 1.0056, 1.96548, 1.99935
1.97019, 0.994105, 0.000000, 1.00438
2.02634, 2.00031, 2.97554, 1.01389
1.95603, 0.992146, 3.15372, 4.93108
5.03968, 1.98746, 0.999809, 1.97278
2.00491, 3.99144, 4.95697, 0.993738
3.01861, 0.000000, 2.00011, 0.000000
0.95315, 1.9843, 2.94635, 0.000000
4.96913, 0.000000, 1.0056, 0.000000
2.98717, 3.95295, 3.99069, 2.00256
1.02498, 0.979395, 0.000000, 1.97162
1.97311, 3.97235, 0.000000, 2.96851
1.00196, 2.00168, 4.93713, 3.00045
3.0156, 1.98586, 3.01911, 1.0009
6.14298, 2.01012, 0.000000, 3.9946
0.000000, 4.98733, 2.99012, 0.997815
3.98729, 2.00747, 1.00476, 1.96833
3.96479, 0.952999, 6.02911, 1.98317
0.991969, 1.98482, 1.01013, 0.993959
2.94368, 3.96713, 2.94518, 2.94334
1.97889, 2.97784, 2.95469, 2.99513
0.000000, 0.997601, 1.99347, 1.98661
1.9942, 5.02901, 2.97935, 1.96289
2.99458, 4.96856, 2.96708, 1.99187
0.989273, 1.02828, 1.9801, 2.97786
3.02304, 0.000000, 1.97977, 1.00005
3.96529, 1.99939, 2.97185, 2.98694
1.0092, 6.94905, 4.03479, 5.01654
2.96468, 2.987, 3.93821, 0.99191
1.00099, 4.00021, 3.98384, 1.01345
2.95245, 1.02767, 1.99864, 1.98814
2.95782, 6.03534, 3.96911, 3.00812
0.986179, 0.992222, 1.00455, 3.02744
0.979151, 1.00436, 1.98275, 4.98593
2.00725, 1.00712, 4.97823, 6.92786
1.98309, 3.04008, 5.00543, 0.000000
1.0019, 5.96368, 0.000000, 3.97543
1.00552, 5.02543, 1.98252, 4.03115
2.02208, 2.94918, 3.95843, 1.99904
2.99307
*END

*EOF