File: CuClQDs/XRD&XRF/20190613/A56_2thetaomega_2θ_ω.asc
*TYPE		=  Raw
*CLASS		=  ASCII CLASS
*SAMPLE		=  A56
*COMMENT	=
*FNAME		=  A56_2thetaomega_2θ_ω.asc
*DATE		=  13-Jun-19 17:02

*GROUP_COUNT	=  1
*GONIO		=  SmartLab(In-plane), 0.000000
*ATTACHMENT	=  χφZクレードル
*ASC		=  0, 0, 0.000000, 0.000000
*I_MONOCHRO	=  Ge(220)x2, 0.000000
*FILTER		=  None
*C_MONOCHRO	=  No_unit, 0.000000
*SLIT_NAME	=  0, 入射スリット
*SLIT_NAME	=  1, 受光スリット1
*SLIT_NAME	=  2, 受光スリット2
*COUNTER	=  HyPix 3000(H), 0
*POS_FORMAT	=  0
*SCAN_AXIS	=  2Theta/Omega
*MEAS_MODE	=  Continuous Scanning
*TARGET		=  29
*XRAY_CHAR	=  K-ALPHA1
*WAVE_LENGTH1	=  1.54059
*WAVE_LENGTH2	=  1.54441
*THICKNESS	=  0, 0.000000
*MU		=  0, 0.000000
*SCAN_MODE	=  2Theta/Omega
*SPEED_DIM	=  sec./step
*XUNIT		=  deg.
*YUNIT		=  counts
*SCALE_MODE	=  1
*REP_COUNT	=  0
*SE_COUNT	=  0
*STD_MATERIAL	=  Unknown, Unknown, 0.000000, 0.000000, 0.000000, 0.000000, 0.000000, 0.000000
*LATT_CONS	=  0, Unknown, Unknown, 0.000000, 0.000000, 0.000000, 0.000000, 0.000000, 0.000000
*SEC_COUNT	=  1
*TSPEC_SIZE	=  0
*EXTRA_SIZE	=  0
*MEMO		=

*BEGIN
*GROUP		=  0
*START		=  20
*STOP		=  90
*STEP		=  0.01
*OFFSET		=  0.000000
*SPEED		=  0.196312
*SLIT_SPEC	=  0, 0.500mm, 0.5, 0.000000
*SLIT_SPEC	=  1, 0.500mm, 0.5, 0.000000
*SLIT_SPEC	=  2, 0.500mm, 0.5, 0.000000
*KV		=  45
*MA		=  200
*LOW		=  0.000000
*HIGH		=  0.000000
*CTEMPER	=  0, 0.000000
*CTEMPER	=  1, 0.000000
*CTEMPER	=  2, 0.000000
*PAREX		=  0, 0.000000
*PAREX		=  1, 0.000000
*PAREX		=  2, 0.000000
*PAREX		=  3, 0.000000
*PAREX		=  4, 0.000000
*PAREX		=  5, 0.000000
*PAREX		=  6, 0.000000
*PAREX		=  7, 0.000000
*PAREX		=  8, 0.000000
*PAREX		=  9, 0.000000
*PAREX		=  10, 0.000000
*PAREX		=  11, 0.000000
*PAREX		=  12, 0.000000
*PAREX		=  13, 0.000000
*PAREX		=  14, 0.000000
*PAREX		=  15, 0.000000
*FULL_SCALE	=  177347
*INDEX		=  0, 0, 0
*COUNT		=  7001
0.967456, 0.000000, 0.992221, 0.97201
2.00757, 0.000000, 2.9706, 2.99934
1.97899, 0.982243, 1.02767, 1.00583
3.96659, 1.01715, 2.00298, 1.99756
2.9604, 0.988968, 1.00085, 1.9685
1.98957, 2.96799, 0.000000, 1.00085
1.97552, 2.00255, 0.000000, 0.000000
0.000000, 0.000000, 1.97174, 0.000000
1.98836, 0.995278, 0.998123, 1.995
2.00059, 1.97747, 0.000000, 1.00531
1.98993, 2.0053, 0.000000, 2.02107
0.988968, 0.000000, 0.984056, 3.95245
0.000000, 1.98231, 1.97826, 0.000000
0.000000, 0.978133, 3.01467, 2.93757
0.000000, 0.000000, 3.95875, 1.97382
5.00575, 0.983507, 1.98427, 0.986464
1.02077, 3.00596, 4.97025, 0.983507
0.000000, 0.980006, 4.97806, 3.91384
0.998445, 1.02508, 0.000000, 1.99601
2.05028, 0.995809, 0.992221, 1.98888
2.00914, 4.95522, 1.002, 1.97766
0.999617, 1.98787, 0.000000, 2.0048
1.94416, 0.969093, 2.94208, 1.99609
1.99667, 0.979404, 3.0035, 1.00896
2.98965, 0.000000, 0.000000, 1.99462
0.000000, 2.99075, 3.01418, 3.93662
3.023, 3.99333, 3.95062, 0.000000
3.97585, 2.00912, 1.974, 0.000000
0.000000, 2.00541, 1.97539, 3.02081
0.000000, 1.01147, 0.000000, 1.98214
0.989402, 0.000000, 1.98109, 2.95441
1.00408, 0.000000, 0.000000, 0.000000
2.00615, 2.00635, 1.00712, 2.94447
0.984347, 1.00216, 0.999617, 3.99916
3.98614, 1.97558, 1.97304, 3.02013
0.987011, 1.9986, 0.979388, 0.000000
1.9814, 0.000000, 4.02475, 0.99971
0.000000, 0.987507, 0.978909, 2.02443
0.000000, 0.000000, 1.98908, 2.00083
2.95005, 0.000000, 0.98982, 1.9833
0.000000, 2.96984, 0.989296, 1.00914
1.99555, 0.000000, 0.000000, 0.000000
0.999808, 1.9722, 0.975574, 0.000000
1.98618, 8.02756, 1.95485, 0.998545
0.000000, 1.00287, 2.99055, 1.97601
2.99903, 4.95714, 0.960998, 1.97311
1.99143, 1.97685, 0.96094, 3.94428
0.967456, 3.03478, 1.97056, 2.01209
1.00287, 1.00486, 2.98839, 1.00259
0.000000, 0.000000, 0.000000, 0.983988
2.96887, 0.000000, 0.000000, 0.991942
0.000000, 1.01865, 0.967456, 3.97994
1.03092, 1.01016, 0.991217, 0.973592
1.03269, 2.03529, 1.94889, 1.96962
3.0099, 2.00872, 0.985708, 0.000000
0.998901, 2.99854, 4.99273, 1.97524
0.984664, 0.975458, 0.992874, 1.97555
1.99386, 0.000000, 1.97838, 1.98368
1.00531, 1.96299, 0.000000, 1.9843
0.000000, 0.986583, 0.999457, 0.989879
0.991217, 2.01777, 3.02883, 0.973592
1.97643, 1.00259, 0.000000, 2.98797
3.98151, 3.92265, 0.000000, 0.000000
0.000000, 0.000000, 1.99431, 2.006
2.04144, 2.97303, 1.00831, 0.000000
1.00246, 1.96854, 0.000000, 1.00084
1.96738, 0.000000, 0.994781, 2.96505
1.97566, 0.000000, 1.98713, 3.96582
1.00015, 1.99661, 1.9794, 0.996176
0.952998, 0.000000, 2.00836, 4.00567
0.977428, 3.93259, 3.99706, 0.952998
0.99926, 1.02077, 0.000000, 1.0166
2.02837, 2.01678, 1.01015, 0.000000
1.99822, 1.00099, 1.95053, 1.95426
1.01098, 0.000000, 0.996763, 0.968198
0.997802, 0.000000, 2.99181, 1.00097
1.01936, 0.990698, 1.00287, 0.996544
3.95437, 0.997965, 1.96379, 0.987511
0.989299, 0.986464, 1.00099, 0.998445
0.000000, 0.000000, 0.000000, 0.000000
1.98231, 1.98188, 0.993865, 0.978338
2.95663, 0.000000, 0.989299, 1.98057
3.0061, 0.000000, 2.98502, 1.94033
0.000000, 0.000000, 3.97713, 1.0002
0.988021, 3.95792, 0.000000, 0.000000
1.98596, 2.03806, 0.999688, 2.02028
0.000000, 0.988162, 1.98613, 0.991413
1.0032, 4.00686, 0.991942, 0.968992
0.992963, 0.000000, 3.00231, 2.0193
1.99482, 0.000000, 0.976707, 1.00187
1.00917, 0.000000, 1.9679, 3.0074
0.000000, 0.993788, 4.99864, 1.00199
1.98462, 0.000000, 3.91427, 3.02152
3.12627, 3.00987, 0.000000, 0.000000
1.94883, 0.988968, 0.998327, 0.97169
1.02936, 1.96885, 1.01349, 2.99193
0.997094, 0.984347, 0.988126, 0.992365
2.97849, 0.000000, 3.00021, 0.986126
0.986181, 0.992416, 1.97636, 3.89263
4.99782, 3.04547, 0.000000, 0.991217
0.994888, 0.980006, 1.00712, 2.96566
0.000000, 0.990902, 0.000000, 0.000000
0.982224, 1.99655, 0.987034, 3.98442
3.93565, 3.94139, 3.01959, 2.00311
2.96217, 3.01845, 1.99619, 2.99932
1.98022, 0.995634, 1.00193, 0.995587
1.99788, 1.97711, 2.92383, 1.0085
1.97754, 1.94924, 2.01782, 2.96872
1.97617, 1.9927, 6.16879, 0.000000
1.98102, 1.99178, 1.00488, 1.99374
5.93615, 2.99036, 0.000000, 3.00364
1.01083, 3.97725, 4.01751, 1.99252
2.0052, 3.93718, 2.0221, 2.96804
0.997826, 3.99629, 0.990515, 2.9846
4.91091, 1.99061, 1.97546, 4.01018
3.01773, 1.96935, 1.01708, 0.981355
7.31625, 0.000000, 7.98827, 0.99813
0.000000, 0.995066, 0.000000, 1.99685
1.02261, 2.97539, 2.971, 1.98587
3.14678, 0.962919, 2.94678, 3.96082
1.96036, 3.00594, 4.90307, 2.99927
4.98163, 3.99259, 2.97315, 6.01851
5.01866, 4.00154, 3.00208, 2.98732
2.9641, 4.99268, 0.99662, 3.96892
2.98242, 0.000000, 9.04422, 3.94171
4.00241, 3.97071, 0.000000, 9.07016
2.97226, 2.00679, 2.9697, 4.98616
3.97084, 6.92989, 10.9869, 4.02119
4.01189, 4.9216, 3.97026, 3.98953
6.03462, 2.01759, 4.94179, 3.95097
4.01582, 4.92383, 6.96944, 4.96104
6.99941, 5.99488, 4.01761, 7.9815
4.9881, 7.94901, 3.9967, 5.02327
8.9675, 8.95366, 4.9747, 4.01235
8.00374, 7.97399, 3.01801, 9.97015
5.98107, 4.93527, 9.98898, 11.0129
5.96645, 6.94993, 10.9768, 9.89782
13.8669, 17.0533, 16.0613, 10.0191
12.9496, 7.9496, 9.94278, 9.00978
11.9944, 18.0915, 11.9196, 14.9845
12.9191, 17.9465, 14.1228, 17.9202
24.8866, 28.0373, 19.8781, 28.9509
24.9407, 19.9469, 16.8973, 35.0093
31.4284, 35.942, 32.9235, 35.3641
45.905, 47.9466, 57.0622, 54.9485
66.8417, 68.751, 66.8092, 92.0352
783.6, 1912.49, 3156.02, 3809.74
6245.44, 11494.5, 22001.8, 24741.7
15276.5, 9959.23, 4837.59, 3183.68
582.166, 214.186, 142.203, 84.9595
42.0201, 36.0395, 38.8266, 35.9607
16.8687, 35.1505, 14.8735, 19.8943
20.9531, 20.3143, 17.991, 21.9364
17.96, 13.9474, 12.0241, 15.0113
10.1642, 12.9724, 11.9285, 13.0037
11.0007, 4.98307, 9.93781, 13.3091
5.98387, 12.2627, 8.97944, 3.99837
6.02312, 6.91083, 7.9891, 12.8993
10.017, 5.01158, 12.0415, 7.02464
8.00342, 9.07441, 7.94826, 5.98756
7.96827, 8.91534, 9.9592, 7.02405
2.96903, 6.00138, 5.02407, 4.94392
4.01389, 5.96023, 4.97005, 3.98337
11.0636, 11.0829, 8.91323, 3.97661
7.93355, 6.92902, 9.99165, 5.9447
5.97124, 4.98861, 4.99797, 2.96682
2.99932, 0.999182, 6.04549, 0.000000
2.01876, 5.95375, 7.93989, 7.97794
3.95487, 4.97688, 4.94695, 3.00487
2.98031, 10.9851, 3.92076, 3.98283
4.00967, 4.98739, 1.98577, 0.000000
3.00513, 6.92176, 2.0145, 5.02966
4.13787, 3.9943, 3.01804, 3.01501
0.000000, 8.00546, 2.95623, 3.97794
3.98618, 5.96632, 3.99492, 1.98728
3.05218, 5.00562, 0.000000, 1.9899
3.00411, 3.93348, 3.00418, 1.94519
3.97255, 4.96997, 2.0363, 5.02764
2.0003, 3.96073, 4.96026, 3.97292
4.04212, 2.96227, 1.97875, 3.01121
1.00982, 7.9537, 3.99858, 2.97242
6.97393, 1.00831, 4.00021, 0.979394
0.000000, 0.989299, 1.9987, 1.98604
0.989868, 2.01199, 1.96351, 0.000000
2.99815, 1.00401, 0.997814, 3.98414
3.94335, 3.00694, 0.000000, 4.0091
3.95203, 2.96955, 1.02077, 3.00203
0.988274, 2.94605, 8.96851, 1.96088
1.98188, 0.988941, 1.01164, 3.00253
0.000000, 2.97651, 2.99638, 0.000000
0.972822, 4.97838, 2.96791, 1.99131
0.992416, 1.0284, 2.04579, 2.97584
1.99186, 1.01098, 0.000000, 1.98486
1.97388, 0.989879, 0.994321, 3.98431
1.96626, 2.96517, 1.96893, 5.00261
1.99491, 2.94377, 2.01945, 5.01302
3.01341, 1.00379, 2.97552, 0.000000
1.01014, 1.98852, 2.0153, 2.00495
6.06488, 2.01075, 1.98675, 0.994323
2.00735, 1.99968, 0.000000, 1.94845
6.9902, 1.9912, 1.9684, 1.99625
1.97338, 3.93926, 0.986126, 1.99457
0.987767, 0.978242, 0.000000, 2.00199
3.00584, 2.96268, 0.000000, 2.026
3.97602, 2.00778, 1.00162, 0.998752
1.03082, 3.94942, 2.00602, 2.02794
0.000000, 1.00144, 1.01627, 2.00907
0.994011, 1.97478, 2.96049, 1.00185
5.94899, 2.00065, 3.94421, 3.98134
2.94115, 1.99193, 1.98981, 3.00566
0.000000, 1.98539, 1.00024, 0.000000
1.02883, 1.00377, 0.99925, 2.01098
1.02218, 0.958476, 0.000000, 2.9934
3.95922, 0.970122, 1.99967, 0.000000
0.000000, 1.0284, 2.00858, 1.01277
2.99093, 0.000000, 0.994332, 1.01996
2.99232, 2.97671, 1.97958, 3.95621
0.000000, 1.99379, 1.97, 0.995842
1.98571, 3.00011, 2.00067, 2.00546
0.000000, 1.99522, 0.000000, 1.01495
2.03189, 1.99671, 1.99371, 0.986702
1.01753, 1.95876, 4.02364, 0.000000
6.03036, 0.000000, 1.01345, 2.99134
0.000000, 2.98203, 4.0121, 3.00718
1.99734, 2.004, 2.00327, 1.03063
3.00222, 3.03065, 4.01834, 1.98436
1.9957, 5.00381, 0.992768, 6.90311
5.94836, 3.96353, 9.94787, 4.96233
4.99174, 6.01716, 5.0222, 3.03709
1.14147, 2.99198, 1.00658, 4.01908
0.000000, 3.96618, 2.13917, 1.98492
0.999736, 0.000000, 1.96536, 1.96016
1.99425, 1.9625, 3.98989, 3.01799
3.98114, 0.000000, 0.985136, 1.00216
3.95774, 0.990064, 0.000000, 0.000000
1.97655, 1.95324, 1.96217, 0.968198
2.96398, 2.92691, 3.01106, 0.985436
1.99473, 1.00377, 1.9957, 0.993811
2.99389, 2.99303, 1.01777, 3.01255
1.98722, 2.00004, 0.991792, 0.988941
0.000000, 0.996603, 2.00229, 4.9163
0.000000, 0.000000, 2.94273, 5.00739
2.99803, 0.998923, 2.9445, 1.0009
1.99808, 0.000000, 0.999406, 0.000000
2.97813, 1.9843, 1.98711, 0.000000
3.01136, 3.99079, 3.95671, 1.00278
3.01243, 0.989299, 1.98149, 0.000000
2.98715, 2.95869, 1.99354, 3.95913
0.983918, 1.00594, 1.99614, 0.977623
0.996212, 0.977416, 0.998526, 2.03694
2.94745, 0.984537, 1.9665, 2.96152
2.98075, 2.01054, 0.000000, 0.988941
2.01957, 1.01495, 0.986881, 0.000000
1.99562, 1.99279, 1.97402, 2.03895
1.99305, 1.97147, 0.996403, 1.00185
1.97712, 0.978338, 0.991773, 1.99282
5.00484, 3.01515, 3.9684, 2.02876
3.01214, 1.96088, 0.999001, 4.01652
0.993811, 3.98596, 0.997087, 1.98361
2.93261, 1.99331, 0.96579, 0.000000
0.000000, 0.988274, 6.94522, 0.000000
3.98744, 3.0121, 2.01988, 3.01296
0.985326, 0.991942, 3, 3.01146
2.98137, 2.00939, 2.96834, 2.97634
0.000000, 1.99843, 0.000000, 3.01327
0.000000, 0.000000, 1.03777, 1.98584
0.985255, 2.96111, 2.97868, 0.000000
1.97471, 1.99581, 0.000000, 0.000000
1.95847, 0.994332, 0.975458, 3.01642
0.995346, 0.000000, 2.97659, 0.981434
1.00195, 2.02175, 6.00851, 0.000000
1.99202, 0.000000, 3.92229, 0.985136
4.01799, 0.993958, 2.01494, 1.99981
2.96099, 2.97643, 0.000000, 1.99204
0.000000, 0.992419, 4.96189, 1.00329
1.97965, 3.98412, 4.03715, 0.985255
3.96292, 2.0122, 0.974621, 1.00443
3.9833, 0.987767, 1.98539, 0.985326
3.06314, 0.986329, 1.98769, 0.999444
1.98934, 2.00716, 2.01058, 1.99988
2.02642, 4.00381, 0.983409, 0.998964
3.04577, 3.92726, 1.99151, 1.99653
1.99555, 0.995516, 1.96141, 1.96607
1.99594, 0.993865, 0.000000, 2.96855
2.00676, 0.995524, 1.99711, 0.99257
2.0099, 1.97571, 2.01338, 1.9795
0.975458, 1.01495, 0.989806, 2.01577
2.96783, 1.00195, 6.92711, 1.15151
0.000000, 1.00602, 0.000000, 0.984347
0.000000, 1.0284, 2.97726, 1.98646
0.987519, 0.992963, 0.000000, 1.00127
0.972822, 1.99886, 4.00187, 0.000000
1.97931, 2.01892, 0.000000, 1.99047
1.00236, 1.00168, 2.98078, 1.95616
0.99926, 2.01092, 0.977428, 4.98275
1.96048, 0.980344, 5.98834, 1.97757
0.990064, 2.00898, 1.96939, 0.000000
1.00531, 1.98259, 1.98481, 0.000000
0.991784, 0.000000, 1.94377, 2.96414
0.995784, 2.94324, 1.9889, 3.99957
1.99727, 2.97593, 1.99103, 1.00377
1.00583, 0.989296, 2.03264, 1.99134
2.00343, 2.00386, 5.97736, 6.03449
3.00147, 5.98966, 7.9239, 4.9598
6.98747, 6.96843, 12.9441, 4.98296
7.01379, 9.08121, 5.9479, 7.92246
6.07192, 2.95107, 3.00508, 3.00235
5.95041, 2.03856, 1.9638, 3.01776
1.00109, 5.98626, 0.987519, 0.000000
1.00139, 0.000000, 0.000000, 3.98776
3.99635, 1.98825, 0.975574, 3.97237
0.995371, 1.00552, 1.97424, 0.979404
0.000000, 0.000000, 0.976479, 4.96243
0.998445, 0.999444, 1.98322, 0.979404
2.98565, 0.000000, 3.96059, 0.000000
3.96084, 1.99089, 3.98988, 0.000000
0.997802, 0.979394, 1.99474, 2.00877
1.01689, 1.9944, 0.998308, 2.9719
0.99971, 2.98754, 3.02773, 0.995524
0.000000, 1.94546, 0.000000, 0.000000
4.9949, 3.97251, 0.983873, 1.00488
1.99476, 0.000000, 1.98307, 1.00533
0.000000, 0.000000, 1.98809, 2.95787
1.98337, 2.00045, 1.94958, 1.01709
1.99284, 0.000000, 1.00539, 4.98798
2.00712, 1.99305, 3.05119, 1.97747
4.96402, 0.000000, 3.95769, 1.96183
0.000000, 0.984412, 1.98935, 1.99892
1.9706, 0.987345, 2.01267, 3.02834
4.00297, 0.000000, 3.96023, 3.93464
4.00555, 3.03814, 1.00382, 3.00015
2.98898, 2.00637, 0.99604, 0.000000
0.996403, 1.01753, 3.98539, 0.000000
0.994483, 2.99229, 0.000000, 2.00776
2.03217, 4.00036, 3.97522, 0.000000
0.975458, 3.976, 0.997874, 2.97805
0.991792, 1.0199, 1.99573, 0.985326
1.00187, 1.99348, 0.997664, 0.000000
5.96864, 1.98276, 2.99744, 2.01795
0.000000, 4.01914, 0.984783, 1.00849
0.992416, 0.000000, 2.00241, 0.000000
1.00095, 1.00168, 4.01502, 0.000000
0.982541, 2.95854, 3.0206, 0.976707
0.970122, 0.000000, 2.00345, 1.96894
3.01319, 0.987034, 0.000000, 0.982377
1.98683, 0.986181, 1.96095, 2.97974
3.98493, 0.000000, 0.000000, 1.96601
0.976479, 1.96466, 2.96281, 0.000000
3.02725, 1.96905, 1.00487, 0.994332
0.989299, 0.000000, 1.15151, 2.02769
0.971069, 0.999736, 0.000000, 2.99282
2.00122, 0.000000, 1.00776, 3.02979
1.95133, 1.01056, 0.000000, 0.000000
2.0013, 2.00671, 0.993303, 3.98443
2.00111, 1.99786, 0.998101, 1.99372
0.000000, 1.99391, 0.979151, 2.99455
0.000000, 0.961223, 1.97041, 1.9952
2.97254, 3.95989, 2.97139, 1.01774
0.988982, 0.973592, 4.01253, 1.9695
1.00139, 0.000000, 1.003, 0.989296
3.95797, 0.992862, 1.97821, 2.97669
2.96442, 1.00162, 1.99605, 2.92518
1.98084, 1.01585, 1.96492, 0.000000
1.00033, 0.9976, 0.998265, 3.98653
2.95192, 0.990101, 0.98511, 0.996693
1.99611, 0.991808, 4.95891, 2.9778
3.98438, 1.00168, 4.97418, 1.96615
0.000000, 4.97653, 2.95755, 3.94564
5.04322, 1.9745, 2.02563, 2.01392
1.99844, 3.9748, 0.000000, 0.996603
3.97866, 5.99035, 0.99662, 1.01373
1.96894, 3.08916, 2.02373, 2.98514
0.995634, 0.000000, 1.9678, 3.98886
0.991968, 1.98692, 2.98349, 0.000000
0.98268, 0.000000, 1.00186, 5.99089
0.989299, 3.99355, 3.01795, 1.97483
0.999444, 0.982697, 0.000000, 0.000000
0.982224, 1.97911, 3.97448, 0.000000
2.99414, 1.00193, 2.01972, 0.998752
0.990595, 2.99459, 2.00249, 2.9749
1.00109, 1.99288, 0.995864, 1.95705
0.988588, 3.98369, 1.97551, 1.00449
2.01667, 1.99001, 3.03047, 2.9767
1.00024, 0.000000, 0.999617, 1.01557
1.95702, 1.95905, 2.02707, 0.994483
1.01487, 2.97515, 2.97492, 0.000000
2.00052, 1.95243, 1.98386, 4.90331
1.00484, 1.99329, 2.00599, 2.99448
5.14613, 0.000000, 2.01483, 3.91212
0.990595, 0.000000, 0.994199, 1.99844
0.000000, 3.0165, 0.999802, 3.94165
0.994199, 1.00329, 0.000000, 2.00975
2.99944, 2.99901, 1.00076, 0.983507
4.01436, 0.973592, 0.000000, 4.97081
1.00076, 4.98745, 0.000000, 1.95436
1.98901, 1.00207, 0.000000, 0.000000
0.000000, 1.96289, 1.99282, 3.97379
1.9845, 1.01164, 2.01363, 0.000000
2.94189, 0.995371, 0.998019, 0.978305
1.97433, 2.9571, 1.0237, 0.982541
0.000000, 0.976204, 1.97178, 1.98568
1.93324, 0.984056, 3.9903, 3.96908
1.99367, 0.000000, 5.90576, 2.97718
4.02006, 1.99815, 1.00716, 0.998752
0.990064, 2.98565, 0.99662, 0.000000
0.996544, 1.99535, 0.000000, 0.000000
2.04446, 0.000000, 0.000000, 2.99088
1.99864, 0.986178, 4.96627, 1.97126
3.02343, 0.995516, 2.01134, 0.993865
1.01487, 0.000000, 3.97025, 3.9434
1.94974, 0.000000, 0.000000, 1.99543
0.000000, 2.95004, 0.000000, 2.95213
1.98768, 1.95186, 0.000000, 1.9841
1.98052, 0.995524, 3.00494, 2.98514
7.99185, 3.01705, 1.00007, 2.0071
5.96973, 0.991942, 0.974621, 1.00007
3.011, 2.99564, 2.01711, 1.97791
2.0054, 1.00684, 0.988463, 1.98571
2.99052, 1.99469, 2.15051, 1.96766
1.98862, 3.0141, 0.968198, 1.96437
3.03892, 0.000000, 3.95288, 0.000000
0.000000, 0.000000, 1.03117, 0.992768
0.999001, 1.98058, 1.00594, 0.000000
3.973, 0.994888, 3.97356, 1.99471
5.97765, 1.98054, 0.000000, 1.00264
0.999718, 3.94879, 2.9453, 0.000000
0.000000, 1.98599, 3.00838, 1.00716
1.99617, 4.93339, 1.98504, 1.00146
0.980312, 0.995587, 2.92936, 2.97072
2.01352, 2.9452, 3.92903, 1.02261
1.0081, 2.99071, 2.01197, 1.99685
3.99888, 0.987519, 0.979388, 0.975574
0.999736, 0.995809, 2.9882, 0.998445
0.000000, 1.9761, 0.000000, 1.99278
0.000000, 0.000000, 2.03756, 1.9993
2.00181, 0.986178, 3.95259, 1.98075
0.000000, 1.01139, 0.000000, 2.01673
4.95361, 3.0077, 1.98118, 3.00381
0.000000, 2.00098, 0.995842, 0.000000
1.99627, 2.94826, 0.99257, 0.979388
0.000000, 1.00139, 0.979151, 0.999084
3.97552, 1.97643, 2.93694, 2.99688
1.9941, 1.93666, 1.99697, 0.000000
3.98824, 3.92808, 1.02936, 2.97032
2.99596, 1.98201, 0.000000, 0.000000
1.01988, 2.01717, 3.97177, 2.98839
0.988274, 2.11842, 0.000000, 3.96708
1.99309, 0.000000, 1.00395, 0.995809
5.99647, 2.96494, 0.998445, 2.95988
0.988008, 3.00476, 2.98364, 1.00617
3.99258, 1.00168, 0.000000, 0.000000
0.994888, 0.988941, 1.97634, 1.99366
0.986062, 1.00099, 1.99645, 4.97707
4.00301, 1.0166, 2.98536, 1.9789
0.971069, 3.014, 1.98084, 0.999002
1.97226, 4.98606, 0.000000, 1.99025
0.997475, 0.953149, 1.99754, 0.000000
0.995842, 1.97687, 0.999444, 2.01121
1.9778, 3.00508, 1.01345, 0.000000
0.98897, 1.98038, 3.94979, 0.994151
2.98231, 1.99541, 2.99868, 0.995682
0.000000, 2.02279, 3.9521, 2.0054
2.97912, 3.97624, 0.000000, 1.98206
0.984385, 3.99343, 1.99352, 3.97911
2.9953, 2.0037, 0.983545, 6.00673
3.0084, 0.971058, 3.987, 2.96016
1.00494, 2.01695, 1.98334, 1.96834
0.000000, 2.9819, 1.98691, 3.0383
2.99416, 0.000000, 3.95342, 2.96132
1.97918, 0.993811, 0.987034, 3.00599
3.97614, 0.000000, 1.97759, 1.97078
0.983545, 2.0362, 0.977425, 1.98444
2.93556, 1.98389, 1.01009, 1.9691
2.99944, 1.01147, 2.04804, 0.000000
0.977834, 0.978133, 1.99702, 3.97317
0.000000, 0.98369, 0.970326, 0.991909
5.00987, 4.02812, 2.9844, 2.98278
0.000000, 1.00488, 0.000000, 0.000000
1.968, 3.00904, 1.98291, 2.96972
3.04719, 5.00262, 2.92968, 2.96394
0.000000, 0.000000, 1.02498, 1.0018
2.96178, 0.996913, 5.97217, 1.95469
1.99739, 4.00765, 3.0407, 1.99988
0.999001, 1.99987, 1.00073, 3.99504
2.99878, 1.96024, 4.00613, 1.97077
1.01901, 1.9831, 3.01756, 2.9871
2.01482, 2.94949, 4.97128, 2.94976
1.01777, 0.983409, 3.98572, 2.97397
2.97267, 1.99668, 0.99065, 0.000000
6.04495, 0.000000, 0.970326, 0.996603
1.96878, 3.97054, 1.98146, 2.99866
3.93301, 0.000000, 1.96815, 0.000000
3.98904, 2.99005, 1.98887, 0.000000
2.98045, 4.98022, 2.00353, 1.96982
1.99309, 4.9502, 0.000000, 1.98492
2.01035, 2.01104, 3.02932, 1.02859
0.992885, 3.03538, 3.00189, 3.98332
1.01009, 4.96321, 0.985318, 0.000000
0.985255, 1.96512, 4.95779, 1.99985
2.99408, 0.992874, 1.94556, 0.96579
3.985, 3.98655, 3.02428, 1.98926
2.97116, 0.000000, 1.96844, 0.991157
1.99453, 2.99324, 2.92408, 2.95564
0.000000, 1.97726, 2.96389, 2.97902
0.000000, 1.00539, 2.0126, 1.00195
3.97332, 1.99362, 1.99943, 1.02767
2.97959, 5.91856, 2.12901, 2.99894
0.984948, 2.9843, 3.01857, 3.00728
0.997842, 3.97714, 2.99737, 2.98721
4.94081, 1.97658, 0.000000, 1.99867
2.00871, 1.99015, 2.9937, 4.25796
4.98959, 1.00917, 0.000000, 1.97986
1.98544, 1.0166, 2.99254, 6.97074
2.98507, 3.99132, 1.02261, 6.91679
1.98268, 4.93363, 1.98002, 0.993375
0.000000, 0.987754, 0.000000, 3.99121
0.9976, 2.32636, 2.99557, 0.169235
1.00186, 2.99366, 0.000000, 2.99948
4.02416, 1.97954, 1.99601, 1.00193
1.99949, 3.01919, 2.01096, 2.96987
1.00007, 3.99415, 3.01724, 0.000000
0.99971, 2.01563, 3.01454, 1.00109
0.000000, 1.98149, 0.988732, 2.96567
3.0301, 4.97209, 2.00436, 1.00329
3.94729, 4.97205, 0.980692, 1.95173
0.000000, 2.99398, 2.97274, 1.97631
1.98102, 2.9967, 0.000000, 1.00837
1.96976, 3.9991, 0.979421, 2.99283
1.01345, 4.014, 7.98456, 0.998405
2.98098, 3.03338, 1.97635, 1.00449
4.16706, 0.997232, 1.01495, 0.993303
2.95303, 3.96099, 1.01016, 1.99493
2.00824, 2.95648, 5.03121, 1.96766
1.95817, 3.04218, 2.00942, 1.98198
4.0149, 3.93461, 1.99064, 5.95887
2.98894, 1.97684, 6.98161, 0.000000
4.0097, 1.00146, 3.04274, 1.00806
2.97341, 4.98033, 3.02858, 4.99308
3.93928, 3.98567, 1.00099, 7.00044
3.96795, 5.94514, 3.99687, 2.9729
3.00389, 2.9807, 1.99614, 0.998923
3.01369, 2.90773, 3.98158, 0.989317
3.98419, 1.97906, 3.0055, 2.00497
0.988084, 0.986085, 2.99855, 2.98939
0.987034, 7.06019, 2.99763, 0.989402
1.97313, 1.96335, 3.99042, 1.00162
2.96203, 1.00716, 2.95835, 2.04456
2.9982, 4.07522, 0.990224, 3.93978
3.97563, 1.00146, 2.00336, 2.00242
3.97008, 2.98544, 6.99623, 0.000000
3.99245, 1.00583, 0.998405, 2.95925
0.982552, 3.00576, 4.98411, 1.96911
0.000000, 6.00815, 4.92575, 2.99454
6.98454, 2.01826, 5.01533, 1.98929
3.28102, 2.97658, 3.96944, 1.97833
3.03064, 5.01829, 2.97806, 3.97192
2.9785, 3.94344, 2.02625, 2.97989
4.99186, 3.01549, 4.03194, 2.97603
1.99061, 2.0009, 1.00005, 5.99495
4.00287, 3.03338, 4.00249, 6.95263
3.00081, 1.99678, 10.1435, 5.98219
0.994011, 5.93901, 2.99786, 1.97857
4.04865, 4.02057, 7.997, 3.99246
5.01896, 4.00961, 6.03194, 10.0193
8.95532, 3.99736, 5.02392, 3.98654
3.01338, 5.00462, 1.97896, 4.9244
5.00065, 5.99249, 4.97797, 3.9443
4.97723, 7.96651, 5.9438, 6.99797
7.97181, 5.92589, 6.02519, 5.11564
12.2713, 10.9119, 6.97743, 9.09968
14.9313, 6.01963, 15.958, 12.2044
7.9814, 9.95816, 14.8709, 10.8587
13.9594, 12.0343, 15.9884, 15.995
11.0847, 14.9425, 25.8322, 17.9177
23.8302, 35.8179, 35.8617, 9.99654
30.0318, 24.9047, 16.0171, 31.7793
40.8986, 51.8125, 53.9307, 52.6576
113.695, 166.207, 265.913, 487.108
2070.21, 2783.05, 2818.85, 1965.39
470.768, 507.784, 520.267, 437.314
58.8377, 40.8594, 30.9344, 30.8941
15.0404, 20.1002, 24.0228, 19.8535
21.8622, 21.9857, 11.919, 12.9361
10.002, 9.88163, 17.1238, 8.04572
9.001, 13.9695, 9.99703, 11.0096
11.8907, 7.03616, 8.36615, 5.012
8.9209, 11.9612, 5.98649, 8.91547
8.98727, 7.98673, 8.04189, 7.96326
8.96848, 10.024, 13.9032, 8.95649
8.00198, 5.92062, 11.0163, 5.92669
5.93546, 7.99631, 9.00844, 3.9874
5.99509, 2.90494, 1.01495, 1.97096
3.02727, 6.9566, 6.96684, 4.98823
5.00239, 6.00568, 0.992145, 0.994553
4.01054, 2.98385, 8.97704, 2.99294
9.049, 11.2158, 3.99051, 9.12185
2.96804, 6.96905, 2.99466, 6.97466
4.97086, 1.0199, 3.98112, 5.95052
1.97574, 4.99045, 4.94403, 2.99927
7.91838, 3.98604, 6.9807, 5.99575
2.14649, 5.9789, 4.038, 1.0032
2.91988, 3.14508, 5.97006, 4.90939
6.95984, 4.96324, 3.02086, 2.98819
3.90394, 6.95484, 5.94898, 3.0008
5.95519, 4.13603, 3.98056, 4.97166
2.97662, 3.98652, 3.9459, 1.97457
5.24607, 5.01315, 1.96018, 3.98943
2.98643, 3.00965, 5.9129, 8.0303
4.02636, 1.97428, 4.05084, 7.97112
1.98872, 6.9589, 3.97657, 2.98801
1.00393, 5.02591, 4.97439, 2.99214
4.99551, 0.000000, 1.99835, 0.000000
5.27981, 3.99014, 4.93021, 1.99891
1.99108, 5.01016, 2.96303, 1.00594
5.9803, 2.98819, 5.94553, 4.01051
3.97546, 1.9689, 2.96601, 3.01074
0.000000, 1.01057, 4.98687, 1.97714
2.9746, 7.05159, 2.99986, 2.98642
0.999718, 4.99631, 1.9814, 2.97777
4.97152, 1.99666, 3.02288, 2.99415
1.99963, 0.997826, 2.92422, 5.93904
4.17575, 5.92027, 2.94199, 4.00677
5.02596, 2.98779, 1.97174, 4.8873
2.98715, 2.00242, 5.97261, 3.97053
0.000000, 3.9843, 5.00757, 3.01006
3.95716, 3.00322, 9.98972, 4.96445
4.95415, 3.00411, 0.979421, 0.975574
0.972822, 3.99068, 4.96562, 1.97733
6.03834, 0.999736, 4.91653, 3.98588
0.978338, 1.98733, 2.05841, 3.98596
2.03976, 1.99366, 2.00196, 3.99003
4.03336, 2.99425, 0.000000, 1.98917
1.9801, 3.987, 0.99534, 0.000000
1.9887, 2.16697, 4.94728, 1.01424
2.00422, 4.02371, 4.93836, 0.980692
5.00831, 2.99012, 1.9828, 2.9885
4.95549, 2.99691, 3.09751, 1.01013
0.000000, 1.02498, 6.00914, 3.0048
2.00171, 2.98791, 2.96708, 2.97886
1.99452, 2.03779, 2.9897, 1.96824
4.90886, 0.991393, 3.96118, 1.01585
0.989868, 1.00626, 0.962919, 2.00072
4.02387, 1.00539, 0.000000, 4.94136
1.02276, 2.97346, 4.28002, 3.9687
3.99282, 1.98676, 3.95395, 2.97049
3.96753, 1.0356, 1.94971, 1.99807
1.97551, 0.997664, 0.000000, 4.00382
4.01157, 1.9914, 4.00045, 5.93701
0.000000, 3.98139, 6.02456, 3.96657
3.93988, 0.989224, 0.996603, 3.98686
3.98175, 4.96417, 0.998923, 2.95272
1.98452, 4.00426, 1.00187, 2.96717
2.00739, 3.99752, 2.98976, 0.980678
1.99471, 2.01491, 1.9657, 3.9589
3.99283, 1.99098, 0.976638, 4.92008
2.9434, 0.988982, 4.96875, 0.993375
1.99704, 0.969093, 2.95761, 0.000000
3.99711, 5.00081, 3.99422, 3.97471
2.97591, 0.000000, 3.03007, 0.997874
0.993865, 4.96899, 2.01458, 1.02498
0.000000, 1.9928, 2.02185, 3.03392
2.00476, 2.99151, 6.97301, 0.987343
2.03318, 4.01788, 2.00878, 3.00839
2.96169, 2.00021, 1.99246, 1.97563
1.99139, 3.94057, 1.98822, 2.99715
2.00171, 1.99221, 0.000000, 3.99415
1.00443, 0.000000, 4.92799, 0.000000
1.98297, 4.02961, 1.99674, 2.98779
2.9813, 0.000000, 1.98413, 0.000000
0.98946, 0.987343, 1.99772, 1.98577
3.9936, 0.000000, 0.000000, 0.990595
3.02354, 2.0127, 1.99281, 0.988455
3.02098, 2.96684, 2.95619, 2.016
0.990064, 1.00795, 0.000000, 1.9681
1.97194, 4.93291, 0.989437, 1.95619
2.02974, 0.986702, 1.9811, 1.99693
4.92424, 1.95122, 1.01996, 1.96685
0.988982, 6.0237, 1.98221, 0.000000
4.90786, 1.99155, 1.99179, 3.04546
1.98201, 1.02077, 2.97313, 0.000000
3.92266, 0.000000, 1.99545, 1.00127
2.963, 3.00322, 1.98122, 2.02137
1.98583, 4.02089, 2.96504, 1.99869
0.984318, 2.98707, 1.97641, 3.99035
3.02252, 2.95601, 1.00144, 1.98158
4.0071, 0.995066, 1.99217, 0.000000
0.991942, 1.01147, 1.97591, 0.997859
1.3299, 5.95786, 3.05218, 2.97455
1.97768, 1.0237, 1.00262, 3.95912
3.95156, 3.00808, 4.95352, 4.0402
0.997826, 0.987066, 2.01056, 1.95287
5.05344, 3.98741, 0.992365, 0.000000
0.000000, 1.00127, 2.96876, 2.0031
0.98369, 1.99632, 0.000000, 1.00236
0.000000, 0.987011, 0.000000, 2.94698
3.01351, 3.96801, 2.0123, 3.94581
3.01177, 0.000000, 0.988669, 3.98427
3.02374, 3.99371, 1.95978, 2.97587
1.0054, 1.98789, 1.00415, 1.00443
0.974621, 0.000000, 2.92512, 3.98211
2.02199, 1.0152, 4.99521, 1.97991
1.99549, 2.99476, 0.000000, 0.996913
1.98303, 2.96161, 0.000000, 0.988274
2.92955, 2.98585, 0.996003, 3.97755
1.98057, 1.98843, 5.96902, 4.00474
2.97283, 0.000000, 1.04701, 1.97306
2.9658, 6.87312, 2.00165, 1.96944
3.9715, 0.958476, 2.94105, 3.00292
6.96051, 1.98569, 2.00345, 2.02078
1.01777, 1.94777, 0.000000, 2.97146
2.95913, 0.969501, 2.9623, 8.10388
0.990698, 1.02008, 1.00393, 2.94854
4.00321, 2.98094, 1.97425, 0.000000
2.97668, 0.000000, 1.98545, 3.94986
3.99485, 0.981625, 0.996603, 2.97862
3.95722, 2.98245, 2.13008, 2.95134
4.01873, 0.994791, 2.94064, 3.00884
5.91563, 3.00962, 4.99508, 1.97123
6.99768, 1.95952, 2.9764, 0.000000
0.991784, 1.97825, 4.04271, 1.00139
5.98179, 1.0079, 4.9523, 1.97633
1.98886, 0.984318, 1.991, 3.00398
0.98199, 1.9969, 0.998445, 0.993958
4.99959, 1.99422, 3.96658, 0.979151
0.994354, 0.980692, 1.00761, 4.96806
3.99834, 3.93124, 4.95938, 2.96993
2.00594, 5.97464, 1.01223, 3.02465
2.92601, 1.00168, 1.01277, 1.9872
2.0251, 1.00074, 5.92563, 1.98838
4.96139, 0.000000, 3.00089, 2.01641
1.0166, 0.972546, 0.000000, 0.99925
0.000000, 1.99393, 2.99803, 0.991992
1.01009, 1.95451, 0.000000, 2.99568
0.986126, 2.96638, 0.96579, 1.95426
5.00712, 2.97019, 4.04142, 2.98961
2.00592, 1.95193, 0.000000, 0.000000
2.99551, 2.98873, 1.00138, 2.0209
1.9912, 2.0016, 0.983507, 0.978338
0.000000, 1.98269, 5.0016, 1.96573
0.000000, 0.000000, 1.95093, 0.000000
0.000000, 1.00896, 3.00118, 1.99704
3.96789, 3.02336, 2.97769, 1.96867
0.000000, 0.993142, 1.99318, 2.0038
2.9827, 1.14269, 1.98282, 1.01753
3.00719, 1.98984, 2.98319, 1.00253
3.02754, 1.97885, 0.995864, 2.9639
1.00382, 0.983592, 2.99824, 2.02683
0.000000, 2.98155, 1.97326, 1.98727
0.999617, 3.98843, 3.98518, 4.01727
1.96636, 1.97462, 1.98905, 1.97528
0.000000, 2.98391, 2.96516, 0.975574
1.97817, 1.00195, 2.95808, 1.98986
3.01571, 5.94195, 2.9878, 0.000000
0.981772, 3.02235, 1.99967, 1.97645
2.99834, 4.9329, 1.00552, 1.00127
0.000000, 1.0018, 2.9845, 0.995167
1.99061, 0.979388, 1.97255, 0.995516
2.9412, 3.0125, 2.98459, 0.000000
5.02705, 1.99451, 3.95414, 1.98775
2.99651, 2.97954, 3.99113, 0.974123
2.98874, 2.04594, 4.96028, 1.00186
0.000000, 4.02599, 1.98518, 3.96182
1.99808, 0.999736, 3.94373, 0.000000
1.00368, 1.02638, 2.9681, 1.02883
1.99577, 1.03093, 4.93158, 2.99254
2.99989, 0.000000, 2.97978, 1.0056
1.99416, 0.993218, 1.96887, 1.98855
3.03805, 2.96655, 1.00186, 0.989105
2.00416, 4.03314, 3.96728, 5.98063
0.000000, 1.97723, 1.98721, 1.0056
0.000000, 2.98426, 2.97136, 1.00626
0.000000, 2.98918, 0.996003, 0.99065
5.01869, 2.99009, 3.98593, 0.991784
1.95539, 3.95741, 3.97247, 1.04108
6.97321, 0.975458, 1.99641, 0.988982
6.90689, 0.000000, 0.99036, 3.02818
3.00188, 3.91909, 4.96109, 1.99437
4.97618, 2.97595, 2.01153, 0.993303
1.99363, 2.94178, 2.01402, 0.000000
2.00474, 2.02099, 2.01219, 3.01405
0.980243, 0.000000, 1.0198, 0.000000
0.000000, 4.95282, 1.01715, 1.99249
2.96, 1.00488, 1.99405, 2.00501
0.994791, 2.01032, 0.000000, 1.95377
0.000000, 1.98721, 2.01923, 3.97669
2.01122, 0.000000, 1.00538, 3.98556
0.000000, 1.99816, 1.96793, 1.00914
4.99957, 0.000000, 0.000000, 3.01466
3.00939, 0.000000, 4.09221, 4.93623
0.997965, 2.02176, 0.96579, 1.94713
0.000000, 1.00216, 1.94009, 0.999481
3.93073, 0.999001, 0.9907, 3.98568
0.986181, 2.97951, 0.958476, 0.000000
3.98357, 0.989299, 0.979421, 0.979109
3.99074, 3.96339, 3.95509, 2.97879
1.98114, 0.000000, 4.95787, 2.95987
1.00455, 4.94612, 1.94232, 1.99596
0.000000, 2.95519, 3.03521, 0.000000
0.974123, 4.00816, 0.977735, 0.984537
0.000000, 0.988369, 1.98382, 0.991819
0.000000, 0.000000, 1.03117, 2.97052
1.96513, 4.95453, 7.93729, 4.97492
1.96307, 3.02569, 0.000000, 3.92915
1.96795, 0.998276, 3.98545, 0.991413
4.01315, 2.00084, 1.98487, 0.994791
2.00968, 1.93603, 0.974621, 0.983918
2.01321, 1.98549, 4.99117, 1.97969
4.99763, 3.0264, 0.975574, 3.96537
4.97978, 1.0063, 2.95767, 0.000000
1.00651, 2.00159, 2.95257, 5.02733
1.96299, 1.98859, 2.00118, 0.983592
1.0284, 0.000000, 0.000000, 2.02688
2.00897, 2.95662, 2.05028, 3.14831
0.000000, 2.00803, 5.07268, 1.00552
4.95884, 3.01525, 1.00387, 4.99724
0.999481, 1.003, 3.00873, 4.01321
1.96686, 2.0103, 1.98009, 0.986274
1.9768, 1.97446, 2.00793, 1.98584
1.98565, 4.97863, 0.000000, 0.000000
2.0071, 4.97324, 2.99996, 0.000000
3.01028, 0.992963, 1.99284, 3.9568
2.97803, 1.99523, 0.000000, 2.99665
3.96252, 1.97341, 2.9761, 3.96885
4.97202, 0.000000, 0.971069, 2.02189
0.984978, 0.000000, 2.97569, 3.01736
1.02859, 0.000000, 0.983988, 1.96591
6.00208, 2.99664, 0.000000, 1.9691
3.97512, 1.97995, 3.97362, 2.00792
0.993811, 3.97613, 0.997463, 1.95882
3.97431, 3.97026, 1.00265, 0.978305
1.98682, 4.05968, 0.989299, 1.97425
4.93142, 2.98186, 1.01009, 1.99107
1.00099, 4.99671, 0.000000, 2.94917
3.96256, 1.00097, 0.980243, 0.000000
1.95896, 2.01819, 1.99372, 4.96034
3.01937, 3.94814, 0.992196, 2.01892
1.02559, 2.9812, 2.95789, 3.96005
1.02828, 3.97915, 5.97512, 2.99278
3.00892, 0.000000, 0.99354, 0.000000
2.99775, 1.00982, 2.98579, 2.97124
3.00075, 0.995528, 1.98927, 3.96969
1.00393, 4.96112, 1.00712, 2.00158
0.000000, 1.02508, 1.9869, 0.000000
0.982887, 2.05854, 2.00278, 6.00081
4.98609, 1.99897, 3.0452, 5.05274
0.992786, 1.98887, 0.996003, 0.998048
1.99116, 1.99473, 1.98416, 2.01211
0.994178, 0.000000, 0.996947, 2.01526
2.99011, 0.98199, 1.95657, 4.9916
0.000000, 2.9663, 2.99008, 0.98114
1.94116, 2.96621, 1.00776, 5.9679
0.000000, 1.94486, 2.9445, 1.95376
1.98255, 0.99122, 0.983988, 1.99114
0.98536, 0.99926, 2.01299, 1.97929
4.05315, 2.99571, 0.991992, 4.03048
1.03117, 0.000000, 0.977425, 2.98089
1.97009, 4.97508, 2.94261, 0.995346
0.99257, 2.92655, 1.98236, 6.92251
0.000000, 1.00015, 0.990698, 0.000000
2.97358, 4.96302, 2.9896, 1.9823
2.99586, 1.01173, 2.00575, 0.000000
2.98534, 3.00891, 0.000000, 1.0027
1.99121, 3.99612, 2.99958, 1.97752
0.000000, 0.976707, 0.985895, 1.98586
0.99534, 0.000000, 1.98236, 2.98433
5.03146, 3.12124, 1.98912, 0.993303
0.000000, 2.0328, 0.979394, 4.90968
2.99733, 5.96723, 0.000000, 2.94667
0.984347, 0.980243, 0.994791, 2.99416
3.0002, 3.94941, 4.97768, 4.94202
0.000000, 4.00412, 2.04095, 1.02859
2.0247, 2.98487, 0.000000, 0.000000
0.000000, 4.00026, 1.98783, 1.98661
0.982065, 0.000000, 0.000000, 3.99782
3.94683, 0.998327, 1.99014, 0.989224
2.94909
*END

*EOF