File: CuClQDs/XRD&XRF/20190613/A59_2thetaomega_2θ_ω.asc
*TYPE		=  Raw
*CLASS		=  ASCII CLASS
*SAMPLE		=  A59
*COMMENT	=
*FNAME		=  A59_2thetaomega_2θ_ω.asc
*DATE		=  13-Jun-19 16:08

*GROUP_COUNT	=  1
*GONIO		=  SmartLab(In-plane), 0.000000
*ATTACHMENT	=  χφZクレードル
*ASC		=  0, 0, 0.000000, 0.000000
*I_MONOCHRO	=  Ge(220)x2, 0.000000
*FILTER		=  None
*C_MONOCHRO	=  No_unit, 0.000000
*SLIT_NAME	=  0, 入射スリット
*SLIT_NAME	=  1, 受光スリット1
*SLIT_NAME	=  2, 受光スリット2
*COUNTER	=  HyPix 3000(H), 0
*POS_FORMAT	=  0
*SCAN_AXIS	=  2Theta/Omega
*MEAS_MODE	=  Continuous Scanning
*TARGET		=  29
*XRAY_CHAR	=  K-ALPHA1
*WAVE_LENGTH1	=  1.54059
*WAVE_LENGTH2	=  1.54441
*THICKNESS	=  0, 0.000000
*MU		=  0, 0.000000
*SCAN_MODE	=  2Theta/Omega
*SPEED_DIM	=  sec./step
*XUNIT		=  deg.
*YUNIT		=  counts
*SCALE_MODE	=  1
*REP_COUNT	=  0
*SE_COUNT	=  0
*STD_MATERIAL	=  Unknown, Unknown, 0.000000, 0.000000, 0.000000, 0.000000, 0.000000, 0.000000
*LATT_CONS	=  0, Unknown, Unknown, 0.000000, 0.000000, 0.000000, 0.000000, 0.000000, 0.000000
*SEC_COUNT	=  1
*TSPEC_SIZE	=  0
*EXTRA_SIZE	=  0
*MEMO		=

*BEGIN
*GROUP		=  0
*START		=  20
*STOP		=  90
*STEP		=  0.01
*OFFSET		=  0.000000
*SPEED		=  0.196312
*SLIT_SPEC	=  0, 0.500mm, 0.5, 0.000000
*SLIT_SPEC	=  1, 0.500mm, 0.5, 0.000000
*SLIT_SPEC	=  2, 0.500mm, 0.5, 0.000000
*KV		=  45
*MA		=  200
*LOW		=  0.000000
*HIGH		=  0.000000
*CTEMPER	=  0, 0.000000
*CTEMPER	=  1, 0.000000
*CTEMPER	=  2, 0.000000
*PAREX		=  0, 0.000000
*PAREX		=  1, 0.000000
*PAREX		=  2, 0.000000
*PAREX		=  3, 0.000000
*PAREX		=  4, 0.000000
*PAREX		=  5, 0.000000
*PAREX		=  6, 0.000000
*PAREX		=  7, 0.000000
*PAREX		=  8, 0.000000
*PAREX		=  9, 0.000000
*PAREX		=  10, 0.000000
*PAREX		=  11, 0.000000
*PAREX		=  12, 0.000000
*PAREX		=  13, 0.000000
*PAREX		=  14, 0.000000
*PAREX		=  15, 0.000000
*FULL_SCALE	=  1616736.8
*INDEX		=  0, 0, 0
*COUNT		=  7001
0.000000, 1.99566, 4.04265, 1.00139
0.985255, 0.986464, 3.95057, 3.96591
4.0098, 4.96584, 5.02918, 0.000000
3.99992, 0.962919, 1.98947, 2.99341
0.996403, 2.01069, 5.98064, 1.99939
4.02985, 2.99369, 4.99174, 0.978662
5.96375, 2.98204, 0.995864, 1.99213
4.98377, 2.00797, 3.97564, 2.98487
2.93357, 0.984318, 1.98657, 3.03497
0.995984, 4.98244, 4.99325, 1.00216
3.969, 0.995524, 6.96847, 5.98722
2.97264, 0.000000, 3.98817, 4.0116
1.97682, 2.92908, 0.952998, 2.96943
3.98432, 0.979394, 1.99731, 3.96514
2.00892, 2.94178, 2.96226, 0.967456
0.989402, 2.95893, 2.96256, 2.99265
0.983988, 1.98186, 2.96264, 4.0067
3.99628, 0.000000, 1.99872, 4.01504
4.96454, 2.94695, 1.01936, 3.99065
2.93281, 2.02783, 5.94465, 2.9349
2.95858, 2.98305, 0.000000, 6.96845
0.986472, 2.97747, 3.97682, 1.95998
2.94941, 1.96314, 1.00085, 1.9679
3.97484, 1.9709, 1.97057, 0.985326
2.99293, 2.9662, 2.97629, 3.95829
3.98789, 6.92845, 2.00283, 1.95468
3.9973, 0.970122, 1.01147, 4.99514
2.02311, 6.00783, 3.02576, 3.00648
1.0284, 3.99961, 4.98475, 4.97982
4.95812, 2.9936, 2.05821, 2.97452
0.982887, 3.9754, 5.00905, 1.98576
3.94768, 2.99941, 4.95379, 4.99869
0.997859, 1.97188, 1.96274, 2.00296
4.96497, 4.00838, 1.99468, 1.02997
0.987034, 2.97752, 0.986329, 0.000000
1.96746, 0.988162, 3.04044, 5.97143
1.99426, 0.996462, 0.987345, 4.00323
3.01003, 2.94012, 0.000000, 2.9826
5.95085, 1.96126, 1.01774, 1.98657
4.98302, 3.97942, 0.997874, 0.975458
0.998603, 7.97699, 1.98165, 3.97651
0.000000, 0.000000, 1.0092, 1.98129
0.000000, 1.97151, 3.99796, 1.97581
1.99016, 2.99729, 5.02916, 4.95532
2.99884, 0.975574, 1.98059, 4.96419
1.00884, 4.96645, 0.997463, 2.94428
4.01774, 1.96663, 1.95902, 4.97975
1.97818, 3.98867, 3.95985, 1.9813
3.0036, 2.02018, 5.02496, 2.97625
4.94508, 0.995984, 5.00056, 5.01153
4.96568, 4.96325, 1.97247, 2.95193
7.03106, 6.92562, 1.97247, 3.02071
3.94385, 1.01209, 3.98364, 1.99328
3.96615, 4.96397, 4.99085, 4.02935
1.99505, 2.95425, 0.98897, 2.06258
0.983873, 3.97233, 2.98851, 0.997475
4.94466, 0.989105, 0.996913, 3.95031
3.0035, 2.01119, 4.98269, 3.9907
2.02034, 2.97266, 1.00786, 3.99053
1.97436, 0.971559, 5.04718, 2.95891
6.9803, 2.97894, 1.00329, 1.98837
1.98077, 3.94445, 3.99526, 3.95952
1.99634, 2.98534, 7.00477, 3.00993
3.99484, 4.98486, 4.97153, 4.95718
2.00707, 0.981195, 1.99939, 1.97388
1.98314, 1.96149, 1.99998, 6.90705
5.9475, 2.98001, 0.000000, 1.00005
1.95922, 4.01775, 1.99738, 2.01593
4.99569, 2.99502, 4.00068, 2.96457
4.97816, 2.02146, 0.000000, 3.99273
5.97931, 2.01891, 5.00662, 2.98293
2.01722, 4.9522, 3.96778, 5.03864
0.989273, 2.00722, 1.9764, 4.93762
6.06273, 3.97642, 2.98942, 1.00626
3.97798, 2.97046, 0.000000, 5.92442
3.96858, 1.9983, 1.99363, 4.96287
2.98673, 4.98198, 6.95997, 1.99411
1.99988, 1.97789, 4.00659, 4.99138
4.97153, 3.97388, 1.98274, 1.98959
5.02371, 0.984658, 0.997094, 2.95523
1.99558, 6.02933, 3.98371, 3.00533
5.00984, 3.99666, 3.99495, 2.92968
2.00079, 6.90308, 2.9844, 2.02928
0.962919, 3.91124, 2.95962, 1.99572
4.95853, 1.97211, 1.97219, 3.96082
1.97706, 1.96506, 4.94035, 3.02009
2.99303, 0.994888, 0.000000, 2.9636
0.987895, 11.9197, 2.97853, 2.99726
3.04089, 2.98456, 3.9863, 1.98219
4.94592, 4.00555, 1.00706, 6.9855
3.94125, 0.999001, 2.02756, 3.01391
1.99445, 2.97777, 1.02767, 5.02271
2.00694, 2.99019, 1.9856, 2.98926
3.02716, 8.87953, 3.98845, 2.95164
5.9692, 4.99144, 3.97961, 3.96887
2.96793, 0.000000, 3.92987, 3.02399
2.95776, 3.01176, 4.96003, 3.02048
3.01461, 2.04704, 6.98811, 1.01345
1.99867, 4.00514, 5.95749, 5.00581
4.99862, 4.96414, 3.00545, 0.000000
7.97144, 2.9737, 3.97305, 2.99433
2.00839, 3.96855, 2.01333, 3.95694
5.97721, 7.97622, 1.95659, 3.95494
6.96683, 4.01419, 4.02793, 1.97156
2.99374, 2.99191, 2.98917, 2.98317
3.94706, 1.00377, 0.000000, 2.9729
3.92222, 2.99394, 2.99672, 0.993782
2.94224, 3.95781, 0.000000, 2.99672
2.99023, 1.99482, 5.96663, 5.89821
3.00883, 2.02143, 2.94155, 0.991942
1.98216, 2.96846, 1.00594, 2.962
1.96923, 3.95857, 4.95245, 2.0021
3.02296, 3.9871, 6.97147, 5.00257
5.94769, 2.95444, 7.96842, 4.97563
2.96929, 3.95361, 0.000000, 5.00395
2.99366, 0.991992, 3.96237, 1.02498
3.95214, 1.99335, 3.96217, 1.99911
7.91453, 3.97835, 7.02407, 4.98699
1.99911, 4.00286, 4.95269, 4.98656
8.89918, 4.95115, 2.95856, 2.99109
0.000000, 4.98127, 3.98784, 3.01285
9.95051, 3.94118, 4.94533, 3.97454
5.9756, 3.99164, 4.9826, 7.91672
5.97244, 2.98389, 3.93854, 5.89976
6.95144, 5.96112, 2.97123, 3.958
5.98848, 3.983, 5.94492, 6.95113
6.02611, 6.96819, 5.96769, 7.98781
2.96081, 8.93884, 6.98167, 6.9875
6.8904, 7.08285, 4.94643, 5.94904
5.18093, 10.9727, 2.98632, 8.08341
10.0992, 8.97884, 8.01241, 4.43021
11.9732, 13.9065, 13.8765, 15.9492
10.912, 10.0223, 8.14629, 16.2258
8.9468, 8.97707, 11.0389, 9.90073
14.9347, 15.9655, 15.9434, 12.8689
15.0006, 24.8745, 20.9241, 25.8575
28.0015, 12.8721, 24.9473, 20.9907
29.9589, 22.9934, 27.9542, 37.0337
34.971, 44.9496, 39.7814, 49.7194
54.0754, 53.457, 57.8914, 67.1129
89.1426, 78.1334, 105.5, 80.6486
94.1388, 127.48, 103.663, 125.015
142.73, 143.437, 176.907, 154.074
215.883, 255.986, 249.716, 291.752
369.156, 406.562, 409.463, 461.63
1423.83, 3237.81, 9576.02, 16701.1
170733, 213119, 247938, 264487
145309, 106212, 79433.4, 58958.6
619.673, 450.529, 417.967, 287.546
130.809, 133.136, 127.892, 98.9119
78.0184, 69.8619, 64.8326, 58.1136
51.0176, 47.7753, 49.8509, 47.9645
51.0877, 46.8366, 28.9077, 31.0575
29.7475, 28.7552, 25.8274, 20.9336
20.1668, 13.9659, 17.2431, 22.9874
18.8251, 12.0311, 22.075, 17.6784
15.0661, 12.1032, 17.0905, 16.0074
6.93552, 14.9422, 13.9604, 7.02215
7.00079, 8.99929, 11.1197, 14.9954
8.01905, 6.95262, 8.90337, 6.99822
8.90875, 7.99058, 9.02033, 13.9849
6.00806, 8.00998, 11.0667, 7.9045
6.97479, 6.97856, 7.00243, 11.0011
8.90778, 11.9948, 8.98505, 3.00104
6.96176, 4.97302, 4.94928, 8.90069
10.15, 6.99517, 5.9893, 6.91582
3.95639, 10.0041, 4.11959, 2.95582
5.97105, 6.93787, 8.94834, 4.94873
11.152, 4.96458, 5.97004, 8.94023
7.99158, 4.00505, 4.29139, 3.00424
3.99348, 10.9647, 4.99799, 3.98097
6.96553, 3.99159, 4.05664, 5.95187
4.9738, 4.99708, 2.00562, 4.93599
3.02408, 3.01075, 7.02322, 1.98181
6.87043, 6.90886, 5.95118, 4.0121
4.99125, 3.98922, 6.98213, 5.97267
8.9417, 2.98097, 6.04332, 0.988569
8.96158, 0.000000, 7.96319, 4.9397
4.95893, 10.9225, 5.99603, 8.97423
4.91897, 2.95633, 7.9987, 3.93224
4.96384, 4.37357, 1.96541, 2.93701
2.93311, 3.01411, 3.01775, 1.97036
4.99175, 5.93842, 3.0253, 4.94522
5.01642, 2.00173, 4.98363, 8.01564
4.94664, 1.97889, 2.97585, 3.01241
2.9695, 3.96383, 9.90863, 3.97556
0.000000, 1.98983, 2.98412, 6.91286
2.9888, 6.96685, 4.94824, 0.981625
3.98026, 5.9532, 3.93665, 1.99217
3.02178, 3.95615, 2.97943, 3.02628
3.97287, 2.99336, 3.00191, 3.96113
2.02511, 1.99719, 4.94378, 2.98744
3.9861, 6.009, 1.98567, 4.01313
3.92714, 3.98841, 3.96032, 2.99244
4.00103, 3.93832, 3.97111, 2.98297
2.01129, 2.97161, 3.01105, 3.9947
3.95075, 0.988941, 2.99518, 1.97067
1.95363, 4.03, 1.99405, 2.0053
5.97219, 1.00024, 4.02101, 0.993218
2.9935, 6.03901, 1.99476, 4.95944
2.00214, 2.93123, 2.00864, 2.9816
2.95631, 0.987343, 0.000000, 0.976638
3.97619, 5.9614, 6.97891, 2.99421
2.98509, 2.96341, 2.97204, 3.94215
5.05116, 0.98369, 3.97874, 2.97805
1.01013, 4.97421, 3.96307, 3.95664
3.00037, 4.93205, 6.03586, 9.91206
3.96141, 3.01809, 0.989879, 6.94232
5.9494, 3.97743, 6.03125, 0.952998
4.97112, 1.9878, 2.99034, 1.02276
5.95577, 4.95176, 5.97015, 5.02289
2.97566, 2.99388, 3.97546, 2.96064
4.91363, 3.9852, 3.94811, 0.998658
1.01147, 4.01236, 4.98889, 0.995433
1.98465, 6.98309, 1.9884, 0.992416
4.94572, 3.95874, 2.96794, 3.00377
1.99169, 8.95565, 4.01444, 2.02087
3.94855, 2.96821, 1.0063, 2.03864
6.02286, 3.99369, 7.95631, 0.992416
2.01724, 3.00112, 0.997094, 5.01129
3.97877, 6.95175, 0.962919, 2.0576
3.00037, 3.97063, 1.94913, 4.00308
1.98932, 3.03947, 3.97636, 0.991968
3.94425, 4.94168, 3.97857, 5.00516
3.9683, 1.01936, 2.97324, 1.98985
5.03948, 1.96746, 1.97954, 4.92994
2.95281, 3.96305, 7.98491, 6.98111
3.95605, 2.98292, 4.97719, 0.992768
1.98838, 8.00445, 4.01134, 0.988732
0.979394, 5.99191, 2.95279, 4.99575
3.01686, 5.982, 5.95574, 6.92575
1.00761, 3.98546, 7.04694, 4.00514
3.00436, 4.00494, 3.96349, 1.00015
1.98391, 4.0109, 2.99119, 1.97242
3.99338, 2.92526, 1.98315, 4.97925
3.95722, 4.97487, 4.96629, 1.00531
0.978305, 1.98793, 2.00533, 1.00099
6.99006, 0.984347, 2.96216, 0.988274
6.01561, 4.94361, 1.97837, 4.00979
0.000000, 3.98739, 2.99937, 5.0145
4.91087, 4.94285, 2.00958, 1.99791
1.9944, 0.985895, 6.91046, 1.99353
2.98663, 4.04265, 4.96964, 1.99506
0.990788, 4.94733, 3.94505, 2.98278
7.9754, 3.96944, 3.94895, 1.99664
1.97356, 2.97182, 4.9095, 1.9959
4.95417, 1.99091, 0.000000, 2.99409
2.98933, 3.99186, 1.95708, 6.05927
4.93763, 2.97936, 1.94291, 1.98605
3.00722, 5.95359, 3.97642, 1.00033
1.97064, 3.99171, 1.98967, 2.93373
3.92906, 2.96004, 2.97456, 1.97663
1.99798, 2.03159, 2.98606, 4.01042
7.9164, 0.962919, 2.98847, 5.92103
1.97399, 4.99597, 0.975458, 1.98795
1.04701, 0.993218, 0.000000, 2.01092
1.01361, 0.000000, 2.9958, 2.97171
2.99514, 0.980384, 2.02257, 3.99995
2.99312, 1.00024, 0.978338, 3.99565
0.989522, 5.97463, 0.998123, 2.97771
3.02568, 3.96905, 3.99223, 2.9865
2.92188, 4.01273, 1.96819, 3.96452
5.03109, 2.95551, 1.00502, 0.988588
3.96656, 1.99825, 5.00789, 3.96083
2.9981, 0.999481, 3.95728, 2.95692
3.92274, 1.98853, 0.978133, 1.97764
3.9557, 1.99035, 5.99416, 1.99864
1.02077, 4.00253, 3.9887, 5.00678
3.98642, 3.01976, 3.00779, 1.97126
0.000000, 4.92483, 0.983873, 4.91821
3.92124, 1.99087, 2.96811, 3.99248
4.92937, 0.994791, 4.98229, 1.04108
2.98352, 1.96039, 5.9809, 3.94777
0.996436, 6.94459, 7.91916, 4.94131
5.05745, 0.000000, 5.89574, 4.96645
2.99989, 0.993375, 1.98407, 0.978662
2.95313, 4.95361, 4.97003, 3.00212
0.988732, 6.97984, 3.99087, 2.00494
3.00641, 4.00601, 4.95183, 0.992196
0.000000, 4.94493, 3.00057, 2.03803
4.99197, 1.99803, 6.92525, 0.000000
4.9554, 5.9708, 0.976204, 2.98337
0.992221, 1.98634, 1.99272, 4.92254
2.99198, 2.95984, 0.998526, 2.01195
1.99044, 0.98268, 2.95452, 1.98217
2.98223, 0.991784, 2.99961, 2.98713
1.01228, 4.96725, 5.01248, 3.96107
4.9772, 3.99659, 1.94034, 4.93878
4.00157, 0.978234, 3.9661, 6.94026
2.04003, 7.97672, 2.02093, 2.98688
6.98086, 2.97865, 2.00017, 0.999617
2.99011, 2.03038, 0.998923, 1.97373
3.96876, 4.00772, 5.97701, 1.0085
5.89039, 1.97143, 3.01016, 4.01959
2.95022, 2.97234, 6.97441, 2.01195
1.99584, 2.97208, 3.00755, 0.997826
4.01599, 3.0134, 5.91171, 0.988818
3.97299, 3.99007, 3.03425, 5.97669
3.97546, 3.94277, 2.95238, 4.93324
1.00024, 4.96546, 1.99448, 0.992221
0.980312, 3.9589, 7.93754, 2.96021
5.99722, 2.96075, 6.00558, 9.94982
3.98277, 8.99444, 5.00943, 5.99532
13.9968, 9.86765, 15.9483, 13.9652
17.0068, 14.933, 16.8742, 10.9439
9.98018, 13.9478, 19.8315, 5.98233
8.97673, 8.06274, 13.9545, 4.01027
1.98622, 5.93911, 4.92662, 1.99163
9.91958, 2.97813, 1.97481, 5.00457
5.02944, 1.98265, 4.01957, 3.97801
1.99495, 2.96335, 1.98291, 3.00496
6.91523, 4.97582, 3.96583, 5.99435
0.988588, 4.94777, 2.98604, 5.98725
1.97989, 3.9893, 2.97228, 1.98791
4.00501, 2.954, 0.982377, 3.01823
0.000000, 6.95788, 1.98027, 4.95397
5.06636, 1.00488, 0.978133, 2.95516
2.99593, 2.96798, 1.96526, 5.98177
4.96139, 4.96519, 0.988588, 7.96908
0.976948, 5.98623, 5.98547, 3.99588
3.95204, 7.86663, 3.9592, 2.97552
2.97969, 3.00918, 1.99214, 3.95294
3.95624, 7.98763, 2.02507, 3.00541
0.996982, 1.98568, 4.99188, 1.01009
4.99602, 2.01933, 4.93999, 0.991942
4.01114, 1.00109, 2.98638, 1.04701
3.99969, 2.001, 4.96128, 4.02795
4.99489, 0.994961, 4.93344, 1.98517
0.000000, 2.94376, 3.97254, 0.974123
1.98331, 2.98048, 2.95466, 3.99793
4.02194, 3.00701, 4.99831, 4.03259
4.98871, 1.97353, 2.98841, 7.95167
5.00676, 4.94326, 2.00778, 6.95438
4.96122, 2.96974, 4.97374, 3.00098
3.9087, 2.98846, 3.9529, 3.96163
5.95765, 0.997664, 5.98996, 5.98093
1.00455, 3.01186, 2.01878, 3.96942
3.00856, 1.9996, 4.98133, 3.96748
0.991792, 1.0018, 1.99831, 0.976638
4.01433, 2.97866, 0.977416, 7.00572
1.99484, 2.01892, 0.993782, 2.99434
1.01013, 2.95298, 3.99382, 2.94913
3.9814, 1.93758, 3.93094, 1.99487
4.02194, 1.99273, 0.974621, 2.02574
2.00154, 1.0018, 3.02095, 2.95783
3.03228, 1.99213, 1.99427, 2.98337
2.98052, 4.15915, 3.01329, 0.000000
3.00696, 3.95562, 2.94872, 1.94733
5.93464, 1.00451, 5.03711, 1.99569
2.99354, 2.93356, 5.97603, 3.99787
1.97433, 2.99373, 0.990595, 5.00167
1.97155, 3.12238, 4.9524, 2.93589
4.96616, 1.98437, 2.02292, 4.00423
1.00488, 2.97947, 1.04701, 2.96149
0.998923, 2.97608, 3.94225, 3.05641
5.00226, 6.0016, 3.99545, 5.94038
1.98811, 0.000000, 4.96342, 2.99061
3.99101, 6.84214, 2.99052, 2.02797
4.00602, 3.96542, 8.93625, 4.94063
7.93626, 2.99547, 2.92604, 0.99354
1.00538, 2.98523, 5.94971, 3.97292
7.98848, 0.991992, 1.98368, 0.998101
1.99087, 3.96015, 4.95457, 3.00564
3.03377, 4.93684, 2.94807, 6.19489
3.98107, 2.97602, 1.01147, 4.00106
4.99617, 4.98541, 4.92902, 2.02117
4.97037, 2.99103, 2.01739, 2.99779
4.95574, 0.990224, 2.99473, 4.95635
1.97763, 0.980692, 6.97, 3.98064
3.00406, 4.97668, 1.99822, 1.01008
3.01197, 7.00982, 4.03383, 1.01139
2.98696, 3.9657, 1.98749, 1.95372
2.95743, 0.996947, 2.98346, 3.96502
2.95709, 1.99558, 3.96273, 1.96873
1.00216, 5.96696, 5.02624, 2.94758
1.99433, 0.000000, 0.000000, 2.95666
2.97395, 2.98568, 4.97803, 2.02372
4.00187, 5.87693, 4.0169, 2.9756
2.97459, 4.99964, 1.01056, 3.97142
4.89886, 5.00377, 0.979109, 6.88361
2.96239, 1.99801, 1.95548, 2.99922
2.05332, 4.95023, 6.97787, 2.97333
2.95351, 2.9942, 6.96351, 2.01634
0.978305, 1.97107, 0.989224, 2.93353
4.00562, 1.99491, 4.98451, 2.97009
3.95676, 1.98685, 4.9262, 2.97597
0.978133, 5.94672, 3.0129, 5.96719
3.94605, 3.97272, 2.0117, 2.95402
2.97427, 5.99907, 4.98924, 2.9889
0.989224, 7.01523, 2.97555, 0.000000
5.0137, 4.99719, 5.98732, 1.98459
1.95966, 2.1391, 2.96477, 3.98927
3.96947, 2.02839, 3.0158, 0.997094
3.94701, 1.02824, 4.94225, 1.97633
2.98765, 5.01664, 2.98809, 0.000000
4.92624, 2.0118, 2.94502, 3.03411
0.000000, 2.95961, 1.97669, 2.96988
1.96702, 7.94689, 3.02862, 3.95539
0.000000, 3.01167, 7.02142, 0.962919
0.000000, 2.95805, 3.97588, 4.01765
3.00083, 2.99612, 3.95442, 1.99765
4.9784, 1.02261, 2.98181, 3.03864
3.96512, 0.993958, 6.90607, 3.01486
5.01418, 2.95608, 4.99203, 1.9909
4.97542, 0.993303, 1.93781, 7.95005
0.999736, 3.01766, 3.95331, 4.94085
1.00438, 2.96153, 4.00648, 3.93586
0.989949, 2.97975, 7.00173, 5.00488
4.97425, 0.000000, 2.97201, 2.02563
4.98867, 6.02713, 5.00409, 2.01629
3.94732, 3.97679, 5.95626, 3.96525
7.90443, 1.97642, 1.9821, 2.97394
4.95423, 5.98341, 2.97023, 1.98999
2.98486, 3.97711, 4.028, 1.00146
1.00505, 0.000000, 2.02894, 1.0089
6.95664, 4.05309, 2.99065, 3.99418
3.00545, 4.90224, 3.015, 4.98439
0.971961, 3.94011, 3.0247, 1.97109
2.96484, 7.93104, 3.95071, 4.96908
4.03374, 2.98579, 2.99981, 4.92207
0.000000, 1.96702, 5.01389, 4.96475
1.97942, 3.96727, 2.97954, 3.00022
3.98317, 5.99244, 7.00322, 6.9164
1.97074, 4.01691, 2.00677, 6.01246
3.92166, 5.95229, 4.99827, 4.98963
6.01493, 3.00053, 1.99081, 2.99265
4.95573, 3.98693, 1.98609, 4.94919
4.91668, 3.98207, 1.9778, 4.98114
5.93081, 4.00357, 0.996544, 1.97895
5.90099, 7.11474, 0.982377, 2.97315
4.97126, 1.99036, 1.97309, 3.97179
2.92491, 8.96674, 0.970326, 1.97693
4.01023, 3.94933, 0.992786, 2.98978
4.92574, 8.94416, 2.99833, 1.96908
5.95904, 0.982887, 4.957, 4.03559
1.98133, 4.00819, 6.92586, 4.00482
4.97944, 3.94451, 4.97172, 2.97567
2.99648, 3.01757, 2.97403, 3.00986
6.98738, 2.99825, 0.000000, 3.91579
7.97003, 2.98987, 3.00811, 0.000000
3.93998, 3.96918, 2.96098, 3.97334
4.96342, 1.98103, 4.96095, 2.99349
1.99795, 0.000000, 7.92231, 2.99471
5.01176, 2.98787, 1.96265, 4.00937
6.98647, 3.98652, 6.92276, 0.000000
2.94301, 3.01977, 2.97557, 2.96618
8.94949, 1.96996, 1.94466, 3.03182
5.94551, 1.92584, 2.9967, 3.02772
2.95405, 4.98844, 3.00084, 5.93887
0.982209, 1.98903, 1.9828, 2.99749
1.00015, 0.968198, 2.99075, 0.000000
2.99594, 0.993303, 3.92031, 2.99222
4.98739, 3.96715, 2.00409, 4.04079
2.95007, 2.97981, 3.96127, 3.95844
6.00294, 4.95572, 4.99099, 1.99084
3.97671, 7.00836, 1.99005, 2.96137
5.96939, 2.98327, 2.95276, 3.98697
2.98349, 4.93527, 9.93837, 4.89138
4.94783, 5.96654, 2.96287, 3.00273
1.99429, 3.99716, 2.97434, 5.99307
4.0112, 4.02083, 5.95448, 4.95142
8.94866, 6.01167, 1.96982, 2.01159
2.96704, 1.00377, 1.99772, 2.97709
2.02564, 2.00536, 3.97653, 2.93123
6.9791, 2.97508, 3.01107, 0.000000
0.000000, 4.00896, 2.0012, 5.94767
4.97654, 3.00305, 2.01677, 5.04386
3.96256, 3.99791, 3.00978, 1.95927
2.9986, 0.998658, 3.97743, 2.95265
6.00546, 5.95093, 4.94399, 1.99938
5.02812, 0.000000, 3.0064, 2.97618
3.02519, 4.99726, 2.95221, 2.95919
2.96264, 4.04863, 4.96837, 4.00027
1.98184, 2.96739, 2.02024, 1.98408
3.96245, 0.984537, 6.97927, 2.01406
3.94776, 2.96138, 0.968573, 0.995682
6.00512, 0.99036, 7.01349, 3.97282
1.98364, 5.9976, 1.93568, 1.98038
3.93374, 3.99022, 2.98345, 7.01243
2.02952, 5.01303, 1.99074, 0.997664
0.99925, 1.98486, 5.97285, 5.93809
4.97942, 2.94791, 3.91058, 1.97348
1.98014, 3.98105, 5.94328, 2.93685
5.00836, 3.98243, 8.00377, 1.00015
3.99798, 7.0061, 2.00363, 8.983
5.01426, 0.982224, 4.9526, 6.9845
1.96489, 2.97186, 1.97445, 3.99925
0.000000, 1.00488, 2.99628, 3.98694
4.97469, 5.01739, 3.92547, 1.99692
2.94843, 1.96647, 3.95387, 5.99219
5.96249, 4.97622, 1.97868, 4.01335
6.08077, 1.99129, 2.98335, 8.9421
1.0179, 2.00625, 5.94357, 3.99346
5.94869, 2.95676, 4.9558, 3.99423
3.95698, 4.98095, 0.991217, 1.9937
5.02897, 0.995278, 0.989868, 3.9742
2.99066, 5.96368, 5.03524, 5.00459
4.96034, 6.00156, 3.97478, 3.00237
0.993303, 0.985326, 3.95966, 4.00878
6.87737, 4.0204, 3.9711, 4.97973
1.96983, 5.99129, 2.97335, 5.99062
3.94812, 4.01074, 4.94532, 3.96134
3.9369, 4.94784, 3.00845, 8.05009
1.99916, 4.9824, 5.02087, 2.99834
7.93789, 2.99848, 1.0092, 5.93763
4.98779, 4.93426, 3.98745, 5.92013
2.1294, 3.96547, 2.98773, 1.9884
2.94906, 10.964, 4.96801, 4.0166
2.98175, 4.99874, 4.98332, 0.983873
2.00867, 7.9384, 5.99083, 1.97014
5.98827, 1.00538, 6.92821, 4.98722
6.01406, 2.00186, 4.94982, 2.98218
2.96059, 4.0108, 6.01581, 2.00765
5.98654, 4.92916, 1.98004, 6.03503
3.99788, 2.96549, 7.88011, 3.99116
5.98094, 3.98137, 5.95627, 1.0284
5.99032, 3.91996, 2.99698, 1.95505
2.9834, 1.99704, 4.00242, 4.99657
1.98744, 4.98016, 3.94762, 4.97004
0.994688, 8.9998, 4.93733, 1.97235
3.93424, 1.98993, 7.95953, 5.96717
0.000000, 2.99375, 0.992145, 1.9989
4.9505, 2.92169, 6.92833, 9.95827
4.94111, 6.97655, 4.97204, 4.00105
1.9684, 2.98043, 2.00367, 5.9659
1.94657, 3.01129, 2.99983, 5.97604
5.01373, 4.94522, 5.96681, 3.99891
1.98119, 2.97306, 3.96469, 4.97759
4.00101, 2.98804, 4.97551, 5.03086
3.98482, 3.01753, 3.04155, 8.96122
10.992, 7.94828, 7.89172, 1.01689
4.95364, 2.97955, 7.90963, 3.01183
5.98223, 3.99265, 5.97444, 5.95795
4.03508, 2.02034, 3.97106, 4.05316
4.98267, 4.98779, 1.98021, 6.97853
6.00086, 2.94058, 5.0209, 6.968
5.02578, 7.02167, 5.31273, 1.95399
5.01701, 2.02682, 4.95764, 3.98093
1.96913, 4.9241, 5.92522, 5.98991
4.00364, 2.96652, 7.01006, 3.9426
2.98114, 7.97023, 2.99638, 2.97087
6.97649, 5.00735, 3.01724, 4.96364
3.95993, 6.98393, 4.99798, 1.01495
5.1225, 4.97418, 0.952998, 3.96174
1.9496, 0.996603, 6.91909, 8.8941
5.97206, 3.99996, 5.90465, 4.96195
7.94291, 6.98844, 4.98697, 3.04624
3.00938, 4.99375, 2.98109, 5.94702
7.90037, 6.97268, 4.00997, 3.94977
5.94736, 7.92148, 6.94918, 6.00605
4.96749, 6.92494, 1.99207, 8.98242
8.96397, 8.89772, 5.00025, 4.96992
5.96006, 7.86897, 7.92721, 5.99581
5.00722, 4.96234, 7.95692, 2.98237
6.95246, 11.9555, 7.95135, 5.96344
9.9336, 6.98999, 6.93175, 9.00726
6.00916, 7.99411, 4.97397, 8.8742
8.98981, 10.2503, 3.98972, 13.1136
6.01322, 9.95935, 3.9177, 16.9018
9.95719, 11.0364, 11.0161, 2.96632
8.93991, 12.0319, 6.97273, 6.98508
7.96683, 15.8315, 7.92857, 17.071
7.97985, 1.96657, 7.93863, 12.9254
9.33414, 9.93491, 6.97028, 8.97783
10.9629, 13.974, 6.96013, 15.7889
17.2028, 13.8738, 5.95704, 18.9506
17.9742, 16.8682, 16.9477, 20.0277
10.9545, 11.9783, 18.9884, 14.9524
24.7815, 27.7966, 17.9133, 23.735
31.8091, 31.246, 40.3565, 33.1376
32.914, 50.9901, 49.9798, 56.7981
63.1732, 64.9099, 68.856, 70.8941
75.3916, 92.4815, 87.0824, 78.9668
107.426, 114.946, 112.861, 129.336
134.893, 174.257, 150.955, 178.643
235.185, 262.235, 245.079, 290.498
500.41, 659.09, 907.339, 1219.7
19927.4, 27810.2, 33609.1, 37291.2
73763.9, 70363.9, 61661, 45525.3
5067.56, 2507.46, 1146.64, 630.395
163.282, 161.665, 136.345, 146.638
110.692, 90.8602, 79.8499, 84.3439
57.1982, 61.765, 53.7738, 62.4974
51.7936, 46.8462, 54.8773, 57.1365
41.7658, 48.0753, 36.9339, 39.7477
27.9062, 31.1228, 24.9793, 24.9187
20.8191, 27.1883, 23.8522, 26.8463
29.8363, 19.0378, 19.9821, 20.9534
22.2044, 21.9104, 13.07, 19.9229
22.8722, 10.9236, 22.9447, 17.1572
19.0212, 16.9605, 20.9787, 11.9045
8.96827, 16.866, 15.8876, 11.0335
16.0646, 11.9874, 18.925, 13.0024
11.8339, 16.8528, 11.905, 11.2379
15.9826, 10.1188, 18.9414, 8.95604
10.8969, 6.94993, 12.0055, 8.94132
14.0176, 6.9329, 9.88227, 9.87446
8.8421, 11.9852, 6.98789, 8.00225
11.0427, 8.91522, 11.9827, 12.9762
9.02111, 11.9553, 6.98501, 8.94644
11.0484, 14.9293, 8.96726, 12.9302
6.02898, 17.9969, 8.96966, 6.96693
5.92982, 10.0018, 6.974, 5.96205
8.98599, 5.96978, 11.2662, 11.9535
7.9992, 8.23608, 15.9166, 10.0479
5.96047, 12.1895, 7.94302, 5.91063
8.00689, 5.94793, 7.3474, 11.9564
3.00193, 11.0245, 1.97535, 4.97251
2.04007, 7.9006, 6.04123, 7.98377
5.99076, 5.11775, 11.9279, 7.95767
9.04564, 10.1322, 10.9447, 9.92365
6.00842, 6.99435, 8.93522, 8.99971
9.92704, 9.93414, 6.96052, 4.00169
5.9856, 3.98656, 5.95441, 7.92848
6.99086, 5.96874, 6.99604, 11.1582
12.9597, 4.00743, 4.97541, 5.01054
3.98159, 5.91456, 6.95666, 3.9538
4.00475, 7.94125, 4.95889, 1.01545
3.94449, 8.90578, 1.01098, 4.94776
3.96192, 4.95494, 6.97904, 5.05005
6.95297, 2.94259, 6.95206, 1.98222
2.93798, 4.96745, 3.96976, 2.96483
7.95633, 2.9819, 6.96812, 3.98651
4.96097, 7.0295, 7.95869, 5.94959
3.99276, 6.98474, 3.96513, 5.96829
9.90988, 6.90534, 6.03034, 8.00286
7.01892, 4.9652, 9.90767, 5.93902
2.98342, 2.99883, 1.9658, 4.12813
8.32332, 4.94107, 6.98197, 6.03907
4.92619, 4.01128, 3.96385, 5.02363
4.0013, 2.99846, 3.96184, 2.99442
4.94293, 0.998276, 8.01776, 2.98932
5.98416, 6.93598, 6.89326, 5.05454
5.03511, 3.99539, 4.95299, 8.93683
5.94889, 5.95732, 2.96702, 0.985326
4.91905, 3.02518, 6.03239, 3.96901
2.98834, 7.00876, 1.999, 1.97451
6.94444, 3.98519, 6.9777, 2.95613
0.987011, 4.93804, 5.01508, 5.04446
5.95467, 7.01424, 5.04326, 7.94034
6.99897, 5.95035, 3.95274, 5.02943
4.00946, 6.01623, 7.96868, 4.00679
5.99048, 7.94949, 8.0112, 6.0276
4.95693, 3.92853, 0.000000, 3.92928
5.00916, 8.99289, 0.979109, 3.02172
3.00315, 4.97706, 4.98377, 4.02052
3.94946, 3.98595, 7.9276, 0.000000
4.9665, 1.98255, 2.00346, 2.95099
3.97634, 7.81795, 4.02284, 0.98897
4.88349, 6.90854, 1.98731, 0.963393
3.9385, 6.97551, 1.97892, 2.96415
3.95238, 6.00698, 1.92762, 4.92631
4.97576, 4.9652, 0.000000, 2.96575
1.98243, 5.98227, 4.00524, 3.91257
2.01347, 5.93793, 3.98495, 10.119
3.01055, 1.01478, 4.95838, 3.92298
4.93597, 5.97804, 2.97956, 1.98811
3.98579, 6.93906, 2.97275, 0.976707
3.91907, 1.9852, 0.975458, 6.06215
6.97069, 7.95104, 3.98121, 7.94509
3.98324, 2.02565, 6.95032, 3.99197
4.99452, 6.96297, 7.00693, 2.9934
4.9761, 1.01901, 3.0147, 2.96327
6.92783, 0.999481, 2.02599, 2.97955
4.01881, 5.02095, 0.99065, 0.000000
4.04722, 7.94146, 6.94906, 4.97367
0.973592, 4.96406, 7.96497, 2.99418
6.95832, 9.94418, 4.99353, 3.95249
4.98557, 1.99434, 2.95515, 5.93659
8.99188, 5.03496, 2.99221, 0.986126
5.97321, 5.92559, 4.01299, 3.96415
3.00693, 0.993811, 1.9851, 4.98819
4.94042, 3.91858, 2.96998, 1.97196
4.99649, 2.0201, 2.95829, 0.977629
3.96505, 2.98573, 2.00506, 4.91382
7.97495, 5.99614, 3.94614, 5.02734
5.96779, 5.99581, 3.9851, 4.04846
0.000000, 6.02222, 1.00074, 5.98591
5.0288, 6.00035, 1.98251, 7.9837
2.00031, 4.07514, 4.9733, 3.99243
1.98228, 1.97859, 5.01125, 3.99713
3.96564, 3.97326, 3.01388, 2.97383
1.98757, 3.01755, 4.95447, 6.00268
5.95102, 5.92484, 2.04344, 4.93288
2.98175, 7.881, 3.00145, 3.98219
0.995433, 2.99658, 3.93591, 4.95618
2.98383, 1.99567, 3.96641, 4.01344
5.98046, 3.9643, 4.98239, 3.94117
7.02294, 3.94929, 4.02182, 4.92575
1.98893, 1.98999, 2.90526, 1.0092
1.00329, 2.96238, 2.02347, 4.97091
1.97996, 0.982552, 5.93224, 5.98487
6.95481, 4.00595, 2.96291, 4.9603
3.99414, 1.0063, 2.98761, 0.994781
2.01233, 3.03788, 4.92602, 3.99875
3.9369, 3.98483, 1.99958, 2.98783
4.98916, 0.995167, 4.97656, 3.99598
1.97965, 5.89704, 3.99037, 9.99601
8.03816, 1.9916, 2.99007, 4.9611
1.00886, 5.01343, 1.99871, 2.97187
2.96394, 3.99673, 3.0031, 3.97937
6.01598, 1.01495, 5.98377, 2.94898
1.98263, 3.99223, 3.99322, 6.01352
4.96912, 7.99523, 3.00872, 2.94002
6.92853, 1.97952, 4.0456, 4.04674
2.97623, 2.99477, 4.00806, 2.99213
6.97123, 7.94997, 7.02836, 5.96594
3.01131, 5.03101, 5.88784, 0.972822
4.96978, 4.95744, 6.94603, 5.00474
1.99535, 8.91898, 9.00904, 3.97746
4.87309, 13.9209, 2.97223, 7.88956
3.93616, 2.00222, 5.96626, 2.96712
5.94951, 5.01536, 2.97391, 1.98882
6.02749, 3.95734, 2.9891, 5.97006
3.96985, 5.01658, 3.01737, 2.99494
3.02476, 2.99024, 6.97856, 3.96033
7.93583, 5.98834, 5.9401, 4.92041
3.03481, 1.99395, 3.93585, 3.00964
0.990515, 1.98054, 5.98779, 2.98132
6.93442, 2.00932, 5.96571, 2.99879
3.94342, 6.97952, 4.95025, 3.01265
3.99767, 0.000000, 5.96341, 3.00256
3.97675, 2.02635, 4.91884, 2.00011
5.15822, 2.00327, 1.98815, 2.98862
3.96738, 8.04774, 4.96631, 6.97923
5.98717, 5.01008, 5.92814, 2.95508
3.99495, 2.99139, 0.000000, 3.96633
5.92916, 4.99718, 3.98552, 3.96704
3.95819, 2.96752, 6.92396, 4.94747
3.03829, 5.9443, 7.93432, 4.02373
6.95091, 4.26683, 2.98319, 3.02365
3.97327, 7.02027, 6.10366, 10.9512
4.97284, 6.90576, 3.94681, 4.99445
2.00403, 2.94721, 3.98561, 5.895
1.98351, 3.97838, 3.00505, 1.96946
2.01729, 3.97317, 1.95832, 3.99427
2.96047, 9.9863, 4.00579, 3.96468
4.95613, 2.98664, 2.99598, 6.9481
3.02914, 5.94698, 5.01689, 5.92084
2.00191, 4.95219, 3.01397, 1.00614
0.99534, 4.99278, 2.96224, 4.01587
5.01644, 0.986464, 6.00057, 1.98149
5.99613, 4.94827, 2.00105, 5.90491
4.92615, 2.95787, 2.01824, 5.9534
3.97905, 4.95291, 3.97469, 4.94218
5.98972, 5.97034, 4.94899, 3.9894
3.96217, 3.96907, 7.03718, 7.00395
1.98238, 6.96717, 1.98957, 4.98231
6.89252, 5.00615, 8.01426, 4.9232
5.97268, 7.00482, 2.96002, 1.93845
0.998327, 1.96669, 6.96807, 5.98178
5.01334, 2.99709, 2.99997, 5.07676
1.99082, 0.000000, 1.01098, 4.0007
1.01996, 1.98793, 8.88927, 5.95109
1.94646, 5.96958, 3.97019, 1.98752
3.98019, 4.01573, 6.94776, 5.92203
1.97384, 6.98769, 3.95988, 3.96218
3.00499, 3.96001, 6.92525, 6.87964
2.97241, 8.94418, 5.98673, 3.00726
2.97484, 7.97973, 2.99373, 2.93331
4.91588, 1.99684, 5.10361, 5.95886
6.95298, 5.05255, 3.00837, 4.00387
7.96665, 5.04374, 1.99293, 5.97394
7.96358, 6.90899, 3.97865, 2.98341
0.992196, 1.98319, 1.9862, 4.91551
1.9961, 4.00223, 2.97914, 3.949
5.96566, 4.06447, 4.03727, 7.88607
0.998964, 4.91158, 10.0134, 4.98025
4.04769, 5.91614, 2.03146, 3.98213
4.97881, 6.92686, 1.99535, 3.97252
4.02356, 2.02426, 0.000000, 6.99741
3.97916, 4.96823, 1.98061, 6.96422
9.89074, 10.0148, 5.98258, 0.971069
9.90639, 11.055, 5.94611, 5.00316
6.95397, 5.01967, 4.00434, 3.99916
4.972, 3.96957, 5.97661, 5.97642
4.99962, 3.96194, 7.94072, 0.988008
4.94249, 0.992365, 4.94109, 1.99426
5.94106, 0.998752, 5.01418, 4.0918
8.94668, 5.98116, 3.02512, 5.0651
4.00979, 2.0087, 2.97269, 4.0163
5.02025, 2.99571, 2.98413, 6.97771
2.99735, 2.96501, 1.97686, 2.96527
4.98441, 4.91015, 4.98363, 6.00348
4.94219, 5.95969, 3.9597, 6.91441
1.96192, 6.01416, 4.95877, 2.00301
5.94924, 5.95031, 5.98881, 3.97743
2.94187, 4.98439, 2.97646, 2.98491
4.95567, 5.99536, 5.00618, 1.95538
3.01278, 5.97556, 6.97836, 0.993737
5.97495, 3.97246, 5.97297, 6.98035
4.01171, 5.98491, 8.11713, 5.94795
6.92916, 5.92765, 3.97652, 1.94522
3.0156, 3.90783, 3.00237, 4.93356
0.993218, 4.94792, 3.98809, 2.96247
3.94307, 2.97887, 4.90861, 4.97057
2.0035, 4.95724, 2.01843, 6.00239
5.9543, 6.95771, 4.00625, 5.00334
1.9718, 2.99632, 4.98075, 6.98776
3.99515, 6.92809, 4.97842, 3.96378
2.14073, 4.97876, 7.96116, 2.97474
1.01016, 2.94538, 4.96996, 5.96799
4.93257, 1.95758, 3.00714, 2.0153
3.93946, 4.96714, 3.98161, 3.91854
5.93449, 6.97951, 2.99934, 2.90199
1.97811, 2.99318, 4.0305, 0.000000
6.97625, 1.01495, 1.98505, 5.97968
6.97633, 2.97352, 1.99974, 5.98396
4.95131, 4.93273, 1.00162, 1.00583
7.93274, 5.03166, 3.95252, 0.000000
2.98913, 2.01296, 5.96098, 3.98845
0.996603, 1.96633, 4.04748, 2.9956
4.95389, 4.95341, 1.04108, 1.96724
2.95228, 3.00733, 4.01624, 3.00595
1.01689, 3.93476, 6.94679, 0.000000
4.96002, 4.89405, 4.01711, 3.95247
5.0348, 4.9364, 3.93816, 4.01995
2.9848, 1.00139, 2.99206, 5.93332
2.97258, 4.0394, 3.97406, 5.96125
3.95296, 5.97883, 2.98079, 2.97065
3.97487, 3.96841, 2.02079, 0.982552
2.97874, 6.98282, 5.96492, 5.00817
3.03531, 4.00735, 2.98584, 3.96031
4.95999, 4.98033, 2.98413, 6.89569
1.97943, 9.0469, 1.98172, 3.96407
5.99207, 7.93675, 7.00698, 2.97296
2.97642, 1.99895, 0.996773, 3.97348
3.94464, 1.98933, 3.98336, 4.0285
0.986464, 0.994105, 2.98828, 4.96941
3.98602, 4.9291, 2.96776, 2.99388
3.00152, 6.26293, 7.95716, 5.95254
2.00122, 2.01332, 2.9452, 3.03465
4.89841, 4.01679, 6.96932, 4.99155
4.95557, 4.98572, 3.00957, 3.93062
0.995193, 1.95568, 3.96998, 4.00817
2.9893, 3.02232, 2.98253, 6.0168
4.0099, 4.96581, 4.93018, 0.986583
0.995698, 3.91775, 5.95067, 0.986087
5.94145, 2.97425, 2.0145, 5.96664
4.93403, 2.99607, 5.95105, 2.97103
4.98141, 0.000000, 6.90584, 5.91862
2.01674, 4.9692, 3.98193, 1.95453
6.94486, 4.01322, 3.94685, 4.97043
2.98983, 6.12679, 5.95374, 3.97483
5.04261, 4.99091, 2.9886, 5.92616
2.98926, 9.00078, 5.98932, 4.89606
0.000000, 2.00956, 2.97835, 5.93456
0.978133, 6.00928, 5.94389, 3.99209
3.99586, 5.03449, 4.97409, 7.94412
5.94095, 3.96811, 1.98847, 0.965384
3.9689, 2.98221, 7.93882, 5.00107
4.99841, 1.97987, 4.97823, 3.01957
5.95602, 4.02257, 4.96359, 0.000000
6.99553, 2.95709, 4.9569, 2.96915
3.96061, 3.97711, 3.99094, 2.01253
6.94761, 4.95523, 4.99676, 3.97409
1.96716, 7.02676, 9.89315, 4.02219
6.96833, 3.97888, 4.00441, 8.93223
3.93234, 7.91891, 6.96395, 1.98884
2.96638, 2.96866, 4.01563, 5.96994
6.00895, 3.96236, 2.92851, 5.93758
3.00499, 2.00983, 1.98911, 5.95577
4.99552, 3.00037, 3.98964, 0.997172
5.03642, 3.01846, 7.04929, 3.96578
2.96483, 0.99354, 1.0284, 2.948
4.98116, 2.93177, 4.96423, 7.92236
4.93609, 2.96859, 5.91107, 3.97577
3.99861, 5.00508, 3.94008, 0.993737
5.95975, 3.95657, 3.94789, 3.00602
5.98959, 0.99425, 1.3299, 5.00758
1.00146, 5.95807, 1.98998, 7.948
3.97948, 1.98112, 1.98342, 1.99466
3.93963, 4.98827, 3.93166, 3.92976
3.0058, 0.000000, 4.93579, 3.96335
3.00822, 1.99636, 4.98785, 4.00196
4.99384
*END

*EOF